Folder: XPS_silicon_waffer_angular_data (part 3)

File: SiO 17.xy
# Created by:        SpecsLab Prodigy, Version 4.50.2-r79252
#
# XY-Serializer Export Settings:
#   Comment Prefix:           #
#   Output meta data:         yes
#   Energy Axis:              Binding Energy
#   Count Rate:               Counts per Second
#   Separate Scan Data:       no
#   Separate Channel Data:    no
#   External Channel Data:    yes
#   Transmission Function:    no
#   ErrorBar:                 no
#   Operation Results:        yes
#   Time Zone Format:         UTC
#
# Group:             Spectrum Group 35
#
# Region:            O1s
# Acquisition Date:  10/25/19 18:48:29 UTC
# Analysis Method:   XPS
# Analyzer:          Phoibos
# Analyzer Lens:     MediumArea:1.5kV
# Analyzer Slit:     5:7x20\B:open
# Scan Mode:         FixedAnalyzerTransmission
# Curves/Scan:       1
# Values/Curve:      491
# Dwell Time:        0.1
# Excitation Energy: 1486.71
# Binding Energy:    570
# Pass Energy:       10
# Bias Voltage:      90
# Detector Voltage:  1900
# Eff. Workfunction: 4.395
# Source:            Focus
# Comment:
#
# Cycle: 0
# Number of Scans: 12
#
# Cycle: 0, Curve: 0
# Acquisition Date: 10/25/19 18:48:29 UTC
#
# ColumnLabels: energy counts/s
#
570  1463.34
569.8  1402.96
569.6  1482.11
569.4  1470.61
569.2  1439.14
569  1405.76
568.8  1436.41
568.6  1392.32
568.4  1417.696
568.2  1408.72
568  1445.92
567.8  1414.118
567.6  1360.42
567.4  1482.6
567.2  1412.07
567  1477.43
566.8  1455.78
566.6  1476.73
566.4  1454.8
566.2  1484.45
566  1527.31
565.8  1494.03
565.6  1509.33
565.4  1512.78
565.2  1594.96
565  1581.62
564.8  1589.77
564.6  1549.28
564.4  1542.31
564.2  1591.73
564  1592.06
563.8  1591.78
563.6  1592.22
563.4  1603.3
563.2  1676.12
563  1676.85
562.8  1701.56
562.6  1644.21
562.4  1718.12
562.2  1700.44
562  1708.66
561.8  1767.33
561.6  1740.6
561.4  1763.41
561.2  1787.16
561  1768.903
560.8  1807.04
560.6  1802.64
560.4  1890.593
560.2  1760.043
560  1798.49
559.8  1850.316
559.6  1878.69
559.4  1854.93
559.2  1835
559  1826.65
558.8  1816.31
558.6  1798.52
558.4  1845.86
558.2  1875.91
558  1896.27
557.8  1922.46
557.6  1865.75
557.4  1935.11
557.2  1947.815
557  1979.78
556.8  1961.19
556.6  1961.06
556.4  2045.7
556.2  1999.68
556  1995.42
555.8  1954.29
555.6  1908.84
555.4  1884.35
555.2  1834.87
555  1778.41
554.8  1809.65
554.6  1809.89
554.4  1707.23
554.2  1756.63
554  1737.68
553.8  1681.25
553.6  1639.18
553.4  1645.59
553.2  1587.3
553  1581.92
552.8  1528.45
552.6  1546.71
552.4  1515.51
552.2  1509.067
552  1460.7
551.8  1421.02
551.6  1453.59
551.4  1391.25
551.2  1434.73
551  1456.58
550.8  1427.91
550.6  1426.03
550.4  1423.36
550.2  1342.911
550  1360.14
549.8  1375.69
549.6  1328.42
549.4  1347.74
549.2  1369.75
549  1379.26
548.8  1336.831
548.6  1317.97
548.4  1260.2
548.2  1265.223
548  1277.65
547.8  1233.48
547.6  1259.17
547.4  1191.79
547.2  1250.11
547  1232.54
546.8  1169.56
546.6  1248.412
546.4  1131.038
546.2  1157.4
546  1122.89
545.8  1143.37
545.6  1076.97
545.4  1094.94
545.2  1063.53
545  1021.2
544.8  992.589
544.6  994.973
544.4  930.573
544.2  890.578
544  864.5165
543.8  819.476
543.6  786.89
543.4  750.2706
543.2  739.469
543  743.457
542.8  708.529
542.6  672.158
542.4  687.344
542.2  695.414
542  685.994
541.8  718.617
541.6  688.366
541.4  666.413
541.2  665.685
541  704.887
540.8  663.712
540.6  696.832
540.4  675.117
540.2  714.209
540  652.644
539.8  666.744
539.6  683.047
539.4  671.249
539.2  672.969
539  704.676
538.8  657.965
538.6  674.205
538.4  657.372
538.2  668.477
538  654.41
537.8  673.043
537.6  699.036
537.4  716.1418
537.2  794.292
537  772.9614
536.8  794.687
536.6  851.402
536.4  904.262
536.2  1068.17
536  1267.457
535.8  1701.22
535.6  2382.69
535.4  3494.17
535.2  5492.47
535  8030.66
534.8  11241.741
534.6  14590.912
534.4  17126.081
534.2  17880.266
534  16648.317
533.8  13831.99
533.6  9988.53
533.4  6769.32
533.2  4324.77
533  2700.17
532.8  1985.79
532.6  1473.77
532.4  1229.48
532.2  1043.71
532  909.285
531.8  917.858
531.6  845.856
531.4  736.4912
531.2  753.666
531  730.4485
530.8  737.56
530.6  710.523
530.4  683.327
530.2  725.646
530  672.578
529.8  675.789
529.6  637.815
529.4  610.314
529.2  626.987
529  700.335
528.8  611.6176
528.6  629.832
528.4  610.633
528.2  590.355
528  612.088
527.8  617.185
527.6  596.913
527.4  615.663
527.2  609.065
527  594.9221
526.8  596.964
526.6  581.226
526.4  599.339
526.2  632.127
526  578.167
525.8  639.624
525.6  597.8122
525.4  625.16
525.2  603.513
525  594.577
524.8  613.027
524.6  609.202
524.4  623.052
524.2  600.971
524  614.365
523.8  607.002
523.6  605.254
523.4  576.502
523.2  597.045
523  613.661
522.8  578.396
522.6  648.895
522.4  609.812
522.2  591.498
522  620.768
521.8  623.291
521.6  559.302
521.4  611.975
521.2  580.561
521  620.09

File: SiO 18(Si).xy
# Created by:        SpecsLab Prodigy, Version 4.50.2-r79252
#
# XY-Serializer Export Settings:
#   Comment Prefix:           #
#   Output meta data:         yes
#   Energy Axis:              Binding Energy
#   Count Rate:               Counts per Second
#   Separate Scan Data:       no
#   Separate Channel Data:    no
#   External Channel Data:    yes
#   Transmission Function:    no
#   ErrorBar:                 no
#   Operation Results:        yes
#   Time Zone Format:         UTC
#
# Group:             Spectrum Group 35
#
# Region:            Si2p
# Acquisition Date:  10/25/19 18:52:19 UTC
# Analysis Method:   XPS
# Analyzer:          Phoibos
# Analyzer Lens:     MediumArea:1.5kV
# Analyzer Slit:     5:7x20\B:open
# Scan Mode:         FixedAnalyzerTransmission
# Curves/Scan:       1
# Values/Curve:      151
# Dwell Time:        0.1
# Excitation Energy: 1486.71
# Binding Energy:    110
# Pass Energy:       10
# Bias Voltage:      90
# Detector Voltage:  1900
# Eff. Workfunction: 4.395
# Source:            Focus
# Comment:
#
# Cycle: 0
# Number of Scans: 12
#
# Cycle: 0, Curve: 0
# Acquisition Date: 10/25/19 18:52:19 UTC
#
# ColumnLabels: energy counts/s
#
110  120.595
109.9  121.027
109.8  111.962
109.7  112.952
109.6  122.2695
109.5  104.174
109.4  102.651
109.3  106.516
109.2  124.353
109.1  105.082
109  105.2736
108.9  105.473
108.8  99.8889
108.7  103.767
108.6  103.805
108.5  112.915
108.4  113.7057
108.3  114.854
108.2  118.074
108.1  108.503
108  120.045
107.9  92.7006
107.8  114.681
107.7  114.047
107.6  120.435
107.5  99.3244
107.4  92.0398
107.3  124.838
107.2  142.091
107.1  141.507
107  140.075
106.9  145.148
106.8  167.32
106.7  219.77
106.6  244.734
106.5  277.001
106.4  318.929
106.3  397.861
106.2  509.2753
106.1  645.544
106  775.1252
105.9  978.923
105.8  1190.92
105.7  1421.31
105.6  1565.71
105.5  1854.94
105.4  2111.13
105.3  2345.2
105.2  2560
105.1  2715.95
105  2982.28
104.9  2968.72
104.8  2938.7
104.7  2922.81
104.6  2759.79
104.5  2545.71
104.4  2257.58
104.3  1987.7
104.2  1676.51
104.1  1413.79
104  1173.57
103.9  929.137
103.8  758.019
103.7  585.99
103.6  505.82
103.5  372.402
103.4  300.0229
103.3  296.065
103.2  258.152
103.1  211.509
103  187.4414
102.9  189.553
102.8  168.826
102.7  159.889
102.6  154.444
102.5  154.546
102.4  132.372
102.3  142.295
102.2  115.986
102.1  107.784
102  105.153
101.9  113.685
101.8  117.869
101.7  141.201
101.6  117.309
101.5  105.506
101.4  119.876
101.3  123.796
101.2  125.025
101.1  133.546
101  179.943
100.9  236.871
100.8  285.594
100.7  384.68
100.6  498.103
100.5  561.045
100.4  648.466
100.3  727.791
100.2  689.774
100.1  686.807
100  790.909
99.9  929.253
99.8  937.166
99.7  820.768
99.6  640.507
99.5  383.364
99.4  203.202
99.3  151.36
99.2  115.409
99.1  91.0132
99  90.8367
98.9  95.8354
98.8  86.3879
98.7  83.9819
98.6  81.3559
98.5  75.4198
98.4  71.9996
98.3  69.4956
98.2  65.2793
98.1  61.194
98  76.15977
97.9  74.6518
97.8  67.537
97.7  64.4588
97.6  65.6135
97.5  65.0912
97.4  71.4905
97.3  79.6691
97.2  64.1945
97.1  79.4787
97  66.2647
96.9  68.3998
96.8  73.5563
96.7  72.9378
96.6  65.4426
96.5  70.9105
96.4  68.9699
96.3  69.8312
96.2  73.13661
96.1  73.1428
96  65.0263
95.9  64.4609
95.8  74.4812
95.7  65.595
95.6  69.6165
95.5  72.8179
95.4  76.7314
95.3  72.9496
95.2  82.4114
95.1  81.6978
95  73.8258

File: SiO 19.xy
# Created by:        SpecsLab Prodigy, Version 4.50.2-r79252
#
# XY-Serializer Export Settings:
#   Comment Prefix:           #
#   Output meta data:         yes
#   Energy Axis:              Binding Energy
#   Count Rate:               Counts per Second
#   Separate Scan Data:       no
#   Separate Channel Data:    no
#   External Channel Data:    yes
#   Transmission Function:    no
#   ErrorBar:                 no
#   Operation Results:        yes
#   Time Zone Format:         UTC
#
# Group:             Spectrum Group 45
#
# Region:            C1s
# Acquisition Date:  10/25/19 19:03:21 UTC
# Analysis Method:   XPS
# Analyzer:          Phoibos
# Analyzer Lens:     MediumArea:1.5kV
# Analyzer Slit:     5:7x20\B:open
# Scan Mode:         FixedAnalyzerTransmission
# Curves/Scan:       1
# Values/Curve:      71
# Dwell Time:        0.1
# Excitation Energy: 1486.71
# Binding Energy:    289
# Pass Energy:       10
# Bias Voltage:      90
# Detector Voltage:  1900
# Eff. Workfunction: 4.395
# Source:            Focus
# Comment:
#
# Cycle: 0
# Number of Scans: 12
#
# Cycle: 0, Curve: 0
# Acquisition Date: 10/25/19 19:03:21 UTC
#
# ColumnLabels: energy counts/s
#
289  568.671
288.9  581.563
288.8  578.443
288.7  608.09
288.6  571.821
288.5  588.275
288.4  616.261
288.3  584.1728
288.2  634.8526
288.1  599.782
288  581.988
287.9  598.357
287.8  618.206
287.7  636.135
287.6  618.893
287.5  597.325
287.4  638.845
287.3  679.35
287.2  655.4
287.1  664.205
287  731.671
286.9  766.929
286.8  793.391
286.7  840.542
286.6  810.607
286.5  879.332
286.4  959.794
286.3  965.706
286.2  1002.916
286.1  1028.22
286  972.505
285.9  977.55
285.8  973.606
285.7  924.093
285.6  883.7894
285.5  826.436
285.4  771.886
285.3  726.7803
285.2  709.708
285.1  621.289
285  623.041
284.9  583.651
284.8  580.283
284.7  603.157
284.6  562.1017
284.5  562.289
284.4  551.096
284.3  561.692
284.2  595.734
284.1  578.014
284  567.665
283.9  549.858
283.8  566.001
283.7  552.249
283.6  532.561
283.5  534.449
283.4  555.911
283.3  526.845
283.2  546.462
283.1  553.656
283  556.053
282.9  543.802
282.8  539.757
282.7  546.09
282.6  577.225
282.5  592.835
282.4  558.078
282.3  556.12
282.2  549.393
282.1  578.414
282  550.462

File: SiO 20.xy
# Created by:        SpecsLab Prodigy, Version 4.50.2-r79252
#
# XY-Serializer Export Settings:
#   Comment Prefix:           #
#   Output meta data:         yes
#   Energy Axis:              Binding Energy
#   Count Rate:               Counts per Second
#   Separate Scan Data:       no
#   Separate Channel Data:    no
#   External Channel Data:    yes
#   Transmission Function:    no
#   ErrorBar:                 no
#   Operation Results:        yes
#   Time Zone Format:         UTC
#
# Group:             Spectrum Group 45
#
# Region:            O1s
# Acquisition Date:  10/25/19 19:14:47 UTC
# Analysis Method:   XPS
# Analyzer:          Phoibos
# Analyzer Lens:     MediumArea:1.5kV
# Analyzer Slit:     5:7x20\B:open
# Scan Mode:         FixedAnalyzerTransmission
# Curves/Scan:       1
# Values/Curve:      491
# Dwell Time:        0.1
# Excitation Energy: 1486.71
# Binding Energy:    570
# Pass Energy:       10
# Bias Voltage:      90
# Detector Voltage:  1900
# Eff. Workfunction: 4.395
# Source:            Focus
# Comment:
#
# Cycle: 0
# Number of Scans: 12
#
# Cycle: 0, Curve: 0
# Acquisition Date: 10/25/19 19:14:47 UTC
#
# ColumnLabels: energy counts/s
#
570  1256.21
569.8  1302.94
569.6  1255.83
569.4  1265.11
569.2  1226.58
569  1305.11
568.8  1231.13
568.6  1244.96
568.4  1239.37
568.2  1210.87
568  1194
567.8  1248.06
567.6  1231.13
567.4  1222.5
567.2  1235.16
567  1231.14
566.8  1249.2
566.6  1200.73
566.4  1291.36
566.2  1296.07
566  1296.7
565.8  1272.293
565.6  1242.99
565.4  1321.61
565.2  1293.05
565  1325.33
564.8  1348.89
564.6  1339.91
564.4  1373.62
564.2  1386.46
564  1383.31
563.8  1373.19
563.6  1360.452
563.4  1385.37
563.2  1420.13
563  1411.17
562.8  1440.78
562.6  1448.51
562.4  1497.39
562.2  1458.56
562  1520.3
561.8  1446.88
561.6  1497.27
561.4  1537.78
561.2  1542.82
561  1533.48
560.8  1470.69
560.6  1522.289
560.4  1547.15
560.2  1559.23
560  1593.42
559.8  1595.18
559.6  1573.16
559.4  1572.396
559.2  1548.7
559  1539.67
558.8  1598.94
558.6  1609.94
558.4  1618.53
558.2  1566.02
558  1667.58
557.8  1623.18
557.6  1649.68
557.4  1642.88
557.2  1664.34
557  1769.943
556.8  1738.13
556.6  1734.89
556.4  1662.14
556.2  1749.63
556  1695.03
555.8  1607.19
555.6  1623.83
555.4  1622.82
555.2  1595.72
555  1579.19
554.8  1555.96
554.6  1534.66
554.4  1481.58
554.2  1505.2
554  1458.87
553.8  1381.46
553.6  1365.89
553.4  1426.65
553.2  1395.91
553  1363.68
552.8  1344.6
552.6  1351.98
552.4  1239.2
552.2  1309.09
552  1246.24
551.8  1282.13
551.6  1270.48
551.4  1232.71
551.2  1218.62
551  1220.762
550.8  1218.86
550.6  1150.82
550.4  1187.47
550.2  1158.98
550  1140.88
549.8  1159.624
549.6  1171.49
549.4  1195.011
549.2  1131.07
549  1119.004
548.8  1135.408
548.6  1137.81
548.4  1106.6
548.2  1073.66
548  1068.26
547.8  1063.99
547.6  1081.48
547.4  1025.01
547.2  1047.27
547  1013.26
546.8  1055.01
546.6  999.277
546.4  959.811
546.2  995.887
546  960.527
545.8  991.469
545.6  968.074
545.4  945.926
545.2  858.831
545  875.505
544.8  782.9351
544.6  816.363
544.4  727.007
544.2  723.017
544  697.007
543.8  667.582
543.6  646.575
543.4  601.437
543.2  605.145
543  604.305
542.8  607.857
542.6  591.4427
542.4  601.278
542.2  585.749
542  563.35
541.8  523.521
541.6  573.431
541.4  551.076
541.2  554.795
541  545.864
540.8  551.381
540.6  531.062
540.4  575.17
540.2  569.388
540  518.265
539.8  577.4524
539.6  534.0527
539.4  575.185
539.2  569.491
539  542.399
538.8  570.468
538.6  553.593
538.4  521.624
538.2  573.384
538  608.513
537.8  591.312
537.6  606.756
537.4  613.292
537.2  602.527
537  637.2731
536.8  687.8474
536.6  729.494
536.4  778.607
536.2  952.69
536  1220.17
535.8  1647.989
535.6  2364.52
535.4  3674.65
535.2  5427.05
535  7805.2
534.8  10533.748
534.6  13180.07
534.4  15124.22
534.2  15116.933
534  13546.902
533.8  10882.269
533.6  7723.3
533.4  5075.42
533.2  3163.99
533  2003.37
532.8  1465.6
532.6  1150.05
532.4  937.166
532.2  812.965
532  756.171
531.8  721.626
531.6  647.977
531.4  610.412
531.2  591.1513
531  605.969
530.8  600.45
530.6  532.687
530.4  535.723
530.2  552.7636
530  541.523
529.8  534.289
529.6  527.614
529.4  536.959
529.2  504.744
529  507.3741
528.8  500.234
528.6  488.675
528.4  477.003
528.2  514.27
528  514.051
527.8  506.287
527.6  511.611
527.4  503.229
527.2  502.774
527  504.901
526.8  508.406
526.6  479.057
526.4  510.433
526.2  490.588
526  502.5
525.8  500.281
525.6  453.438
525.4  480.013
525.2  526.2361
525  490.682
524.8  511.683
524.6  485.642
524.4  508.027
524.2  477.726
524  485.247
523.8  470.883
523.6  497.312
523.4  489.169
523.2  491.722
523  493.35
522.8  481.815
522.6  498.189
522.4  488.997
522.2  495.408
522  510.255
521.8  511.8425
521.6  481.221
521.4  517.905
521.2  512.637
521  498.303

File: SiO 21(Si).xy
# Created by:        SpecsLab Prodigy, Version 4.50.2-r79252
#
# XY-Serializer Export Settings:
#   Comment Prefix:           #
#   Output meta data:         yes
#   Energy Axis:              Binding Energy
#   Count Rate:               Counts per Second
#   Separate Scan Data:       no
#   Separate Channel Data:    no
#   External Channel Data:    yes
#   Transmission Function:    no
#   ErrorBar:                 no
#   Operation Results:        yes
#   Time Zone Format:         UTC
#
# Group:             Spectrum Group 45
#
# Region:            Si2p
# Acquisition Date:  10/25/19 19:18:37 UTC
# Analysis Method:   XPS
# Analyzer:          Phoibos
# Analyzer Lens:     MediumArea:1.5kV
# Analyzer Slit:     5:7x20\B:open
# Scan Mode:         FixedAnalyzerTransmission
# Curves/Scan:       1
# Values/Curve:      151
# Dwell Time:        0.1
# Excitation Energy: 1486.71
# Binding Energy:    110
# Pass Energy:       10
# Bias Voltage:      90
# Detector Voltage:  1900
# Eff. Workfunction: 4.395
# Source:            Focus
# Comment:
#
# Cycle: 0
# Number of Scans: 12
#
# Cycle: 0, Curve: 0
# Acquisition Date: 10/25/19 19:18:37 UTC
#
# ColumnLabels: energy counts/s
#
110  94.3971
109.9  90.64785
109.8  99.07172
109.7  91.5071
109.6  87.9865
109.5  95.9772
109.4  92.1495
109.3  93.2687
109.2  96.0993
109.1  96.573
109  100.697
108.9  104.542
108.8  95.0983
108.7  82.9924
108.6  89.3709
108.5  99.4796
108.4  85.8255
108.3  79.8247
108.2  85.8215
108.1  83.7478
108  85.6768
107.9  96.4433
107.8  100.7112
107.7  85.4863
107.6  91.8251
107.5  107.134
107.4  107.552
107.3  109.133
107.2  110.52
107.1  126.7823
107  138.358
106.9  146.436
106.8  170.374
106.7  182.247
106.6  231.4606
106.5  306.199
106.4  369.041
106.3  434.099
106.2  539.729
106.1  661.092
106  844.951
105.9  1023.47
105.8  1223.51
105.7  1462.17
105.6  1671.26
105.5  1843.28
105.4  2062.15
105.3  2213.46
105.2  2467.46
105.1  2570.94
105  2529.24
104.9  2577.72
104.8  2610.42
104.7  2531.45
104.6  2399.477
104.5  2188.05
104.4  1963.925
104.3  1685.38
104.2  1419.49
104.1  1185.18
104  914.318
103.9  710.407
103.8  579.204
103.7  452.309
103.6  396.282
103.5  294.711
103.4  260.813
103.3  225.529
103.2  189.919
103.1  186.484
103  165.729
102.9  166.086
102.8  153.317
102.7  140.816
102.6  121.834
102.5  118.642
102.4  114.665
102.3  103.388
102.2  100.798
102.1  91.82688
102  110.39
101.9  90.5995
101.8  91.0657
101.7  116.201
101.6  95.5356
101.5  105.2861
101.4  110.901
101.3  108.181
101.2  129.067
101.1  137.171
101  159.8061
100.9  175.581
100.8  245.875
100.7  330.943
100.6  389.438
100.5  403.424
100.4  424.371
100.3  440.3
100.2  445.269
100.1  525.6128
100  566.137
99.9  659.943
99.8  560.919
99.7  452.69
99.6  301.375
99.5  174.377
99.4  115.178
99.3  88.5974
99.2  77.9277
99.1  76.1851
99  75.6857
98.9  64.8442
98.8  71.8482
98.7  76.5593
98.6  76.6297
98.5  72.0377
98.4  74.3748
98.3  78.148
98.2  53.8139
98.1  62.8544
98  61.327
97.9  68.64581
97.8  72.4131
97.7  63.3105
97.6  65.83
97.5  59.4121
97.4  61.4449
97.3  63.2258
97.2  57.6346
97.1  66.3619
97  54.4063
96.9  62.1037
96.8  64.9553
96.7  64.63533
96.6  64.0616
96.5  75.5014
96.4  49.2994
96.3  60.0763
96.2  62.1759
96.1  66.84895
96  78.1907
95.9  65.23062
95.8  59.6402
95.7  63.9651
95.6  68.326
95.5  55.1164
95.4  60.2035
95.3  59.49
95.2  63.18346
95.1  62.8508
95  62.7689

File: SiO 22(C).xy
# Created by:        SpecsLab Prodigy, Version 4.50.2-r79252
#
# XY-Serializer Export Settings:
#   Comment Prefix:           #
#   Output meta data:         yes
#   Energy Axis:              Binding Energy
#   Count Rate:               Counts per Second
#   Separate Scan Data:       no
#   Separate Channel Data:    no
#   External Channel Data:    yes
#   Transmission Function:    no
#   ErrorBar:                 no
#   Operation Results:        yes
#   Time Zone Format:         UTC
#
# Group:             Spectrum Group 55
#
# Region:            C1s
# Acquisition Date:  10/25/19 19:38:18 UTC
# Analysis Method:   XPS
# Analyzer:          Phoibos
# Analyzer Lens:     MediumArea:1.5kV
# Analyzer Slit:     5:7x20\B:open
# Scan Mode:         FixedAnalyzerTransmission
# Curves/Scan:       1
# Values/Curve:      71
# Dwell Time:        0.1
# Excitation Energy: 1486.71
# Binding Energy:    289
# Pass Energy:       10
# Bias Voltage:      90
# Detector Voltage:  1900
# Eff. Workfunction: 4.395
# Source:            Focus
# Comment:
#
# Cycle: 0
# Number of Scans: 12
#
# Cycle: 0, Curve: 0
# Acquisition Date: 10/25/19 19:38:18 UTC
#
# ColumnLabels: energy counts/s
#
289  448.661
288.9  441.562
288.8  448.126
288.7  448.254
288.6  414.249
288.5  420.565
288.4  439.539
288.3  417.13
288.2  445.355
288.1  450.42
288  438.018
287.9  435.3308
287.8  444.39
287.7  459.054
287.6  466.634
287.5  488.444
287.4  500.856
287.3  507.614
287.2  492.551
287.1  530.433
287  566.05
286.9  577.911
286.8  640.686
286.7  684.525
286.6  715.313
286.5  741.131
286.4  780.01
286.3  790.598
286.2  797.7758
286.1  785.02
286  810.218
285.9  754.762
285.8  777.284
285.7  738.102
285.6  664.46
285.5  619.692
285.4  603.894
285.3  601.834
285.2  521.523
285.1  521.985
285  509.235
284.9  484.541
284.8  455.0161
284.7  463.849
284.6  419.9802
284.5  404.523
284.4  447.369
284.3  419.854
284.2  434.758
284.1  407.979
284  420.8654
283.9  424.408
283.8  394.098
283.7  402.356
283.6  418.6153
283.5  439.741
283.4  403.104
283.3  414.899
283.2  406.2547
283.1  410.729
283  410.443
282.9  433.559
282.8  426.805
282.7  408.095
282.6  410.008
282.5  410.483
282.4  401.036
282.3  401.8568
282.2  427.114
282.1  401.03
282  402.268

File: SiO 23(O).xy
# Created by:        SpecsLab Prodigy, Version 4.50.2-r79252
#
# XY-Serializer Export Settings:
#   Comment Prefix:           #
#   Output meta data:         yes
#   Energy Axis:              Binding Energy
#   Count Rate:               Counts per Second
#   Separate Scan Data:       no
#   Separate Channel Data:    no
#   External Channel Data:    yes
#   Transmission Function:    no
#   ErrorBar:                 no
#   Operation Results:        yes
#   Time Zone Format:         UTC
#
# Group:             Spectrum Group 55
#
# Region:            O1s
# Acquisition Date:  10/25/19 19:49:46 UTC
# Analysis Method:   XPS
# Analyzer:          Phoibos
# Analyzer Lens:     MediumArea:1.5kV
# Analyzer Slit:     5:7x20\B:open
# Scan Mode:         FixedAnalyzerTransmission
# Curves/Scan:       1
# Values/Curve:      491
# Dwell Time:        0.1
# Excitation Energy: 1486.71
# Binding Energy:    570
# Pass Energy:       10
# Bias Voltage:      90
# Detector Voltage:  1900
# Eff. Workfunction: 4.395
# Source:            Focus
# Comment:
#
# Cycle: 0
# Number of Scans: 12
#
# Cycle: 0, Curve: 0
# Acquisition Date: 10/25/19 19:49:46 UTC
#
# ColumnLabels: energy counts/s
#
570  969.377
569.8  1003.5
569.6  1024.96
569.4  986.184
569.2  995.874
569  1036.72
568.8  1018.58
568.6  1007.79
568.4  993.023
568.2  981.236
568  1010.68
567.8  998.214
567.6  992.893
567.4  1009.1
567.2  988.177
567  1009.7
566.8  1035.09
566.6  1044.24
566.4  1046.45
566.2  1025.79
566  1071.608
565.8  1083.62
565.6  1060.369
565.4  1034.44
565.2  1043.19
565  1078.41
564.8  1069.4
564.6  1110.05
564.4  1044.81
564.2  1106.23
564  1095.64
563.8  1119.854
563.6  1090.18
563.4  1156.76
563.2  1133.53
563  1158.97
562.8  1138.61
562.6  1186.19
562.4  1186.05
562.2  1163.89
562  1223.806
561.8  1245.94
561.6  1230.59
561.4  1240.823
561.2  1193.28
561  1233.67
560.8  1243.21
560.6  1259.25
560.4  1251.75
560.2  1276.12
560  1225.91
559.8  1298.99
559.6  1276.43
559.4  1239.76
559.2  1292.49
559  1240.79
558.8  1233.06
558.6  1295.92
558.4  1260.13
558.2  1330.02
558  1296.045
557.8  1338.74
557.6  1329.98
557.4  1368.55
557.2  1339.6
557  1373.14
556.8  1386.03
556.6  1389.229
556.4  1409.58
556.2  1378.66
556  1397.08
555.8  1318.63
555.6  1350.91
555.4  1266.82
555.2  1288.19
555  1268.11
554.8  1232.12
554.6  1197.14
554.4  1204.6
554.2  1208.22
554  1183.51
553.8  1183.32
553.6  1111.33
553.4  1096.21
553.2  1087.86
553  1016.24
552.8  1077.6
552.6  1021.69
552.4  1031.63
552.2  1047.16
552  985.991
551.8  1007.41
551.6  989.182
551.4  956.728
551.2  978.544
551  997.146
550.8  967.247
550.6  900.71
550.4  923.139
550.2  959.069
550  960.755
549.8  920.779
549.6  966.757
549.4  911.875
549.2  945.388
549  926.8
548.8  912.0784
548.6  930.703
548.4  907.65
548.2  871.138
548  842.4235
547.8  870.3375
547.6  851.333
547.4  831.767
547.2  847.2082
547  819.728
546.8  860.311
546.6  801.191
546.4  732.68
546.2  770.484
546  771.806
545.8  773.338
545.6  756.89
545.4  723.5969
545.2  689.861
545  694.876
544.8  649.2882
544.6  575.1184
544.4  588.238
544.2  553.502
544  523.756
543.8  520.528
543.6  515.377
543.4  500.151
543.2  477.932
543  451.54
542.8  459.047
542.6  464.343
542.4  444.571
542.2  417.565
542  428.421
541.8  440.957
541.6  408.104
541.4  396.383
541.2  398.5736
541  431.795
540.8  428.251
540.6  405.127
540.4  438.195
540.2  427.396
540  438.4517
539.8  417.348
539.6  424.601
539.4  391.982
539.2  425.8145
539  417.706
538.8  413.1
538.6  465.531
538.4  442.527
538.2  396.614
538  457.333
537.8  428.846
537.6  455.743
537.4  462.581
537.2  474.247
537  469.63
536.8  523.809
536.6  581.698
536.4  617.175
536.2  731.906
536  969.446
535.8  1332.57
535.6  1971.89
535.4  3022.82
535.2  4645.71
535  6555.266
534.8  8928.92
534.6  11035.55
534.4  12173.969
534.2  12017.274
534  10417.279
533.8  8240.1
533.6  5682.3
533.4  3574.22
533.2  2336.94
533  1497.19
532.8  1032.33
532.6  830.872
532.4  731.9161
532.2  652.321
532  582.284
531.8  552.876
531.6  502.3397
531.4  483.606
531.2  496.147
531  449.925
530.8  419.1181
530.6  431.318
530.4  392.245
530.2  440.5884
530  420.385
529.8  427.603
529.6  425.858
529.4  386.118
529.2  377.769
529  401.159
528.8  383.665
528.6  372.431
528.4  387.722
528.2  377.212
528  408.544
527.8  375.263
527.6  380.848
527.4  391.216
527.2  386.8094
527  365.277
526.8  391.3093
526.6  367.9963
526.4  377.897
526.2  367.119
526  366.155
525.8  385.702
525.6  404.335
525.4  379.655
525.2  373.595
525  392.564
524.8  369.147
524.6  377.12
524.4  353.548
524.2  385.735
524  368.1044
523.8  365.244
523.6  362.232
523.4  355.214
523.2  396.633
523  353.669
522.8  375.384
522.6  350.28
522.4  389.981
522.2  361.065
522  356.668
521.8  381.387
521.6  350.143
521.4  367.697
521.2  385.79
521  382.413