Folder: XPS_silicon_waffer_angular_data (part 2)

File: SiO 10.xy
# Created by:        SpecsLab Prodigy, Version 4.50.2-r79252
#
# XY-Serializer Export Settings:
#   Comment Prefix:           #
#   Output meta data:         yes
#   Energy Axis:              Binding Energy
#   Count Rate:               Counts per Second
#   Separate Scan Data:       no
#   Separate Channel Data:    no
#   External Channel Data:    yes
#   Transmission Function:    no
#   ErrorBar:                 no
#   Operation Results:        yes
#   Time Zone Format:         UTC
#
# Group:             Spectrum Group 15
#
# Region:            C1s
# Acquisition Date:  10/25/19 17:46:23 UTC
# Analysis Method:   XPS
# Analyzer:          Phoibos
# Analyzer Lens:     MediumArea:1.5kV
# Analyzer Slit:     5:7x20\B:open
# Scan Mode:         FixedAnalyzerTransmission
# Curves/Scan:       1
# Values/Curve:      71
# Dwell Time:        0.1
# Excitation Energy: 1486.71
# Binding Energy:    289
# Pass Energy:       10
# Bias Voltage:      90
# Detector Voltage:  1900
# Eff. Workfunction: 4.395
# Source:            Focus
# Comment:
#
# Cycle: 0
# Number of Scans: 12
#
# Cycle: 0, Curve: 0
# Acquisition Date: 10/25/19 17:46:23 UTC
#
# ColumnLabels: energy counts/s
#
289  911.339
288.9  919.6
288.8  899.0661
288.7  955.204
288.6  934.854
288.5  920.314
288.4  926.678
288.3  944.291
288.2  953.509
288.1  975.125
288  943.525
287.9  976.859
287.8  992.594
287.7  993.808
287.6  1009.62
287.5  981.18
287.4  1051.06
287.3  1048.18
287.2  1041.82
287.1  1090.83
287  1084.94
286.9  1142.48
286.8  1160.02
286.7  1253.14
286.6  1296.406
286.5  1283.42
286.4  1337.72
286.3  1391.94
286.2  1422.57
286.1  1461.63
286  1481.96
285.9  1456.369
285.8  1435.99
285.7  1385.05
285.6  1341.654
285.5  1249.92
285.4  1171.18
285.3  1092.75
285.2  1069.51
285.1  1037.492
285  984.279
284.9  970.997
284.8  892.706
284.7  893.33
284.6  889.543
284.5  927.354
284.4  891.599
284.3  878.268
284.2  861.717
284.1  852.951
284  826.284
283.9  891.718
283.8  886.075
283.7  840.3727
283.6  888.7816
283.5  891.597
283.4  818.782
283.3  859.1661
283.2  875.118
283.1  855.476
283  870.283
282.9  871.427
282.8  891.298
282.7  856.186
282.6  837.855
282.5  861.847
282.4  895.49
282.3  868.7036
282.2  852.631
282.1  882.209
282  885.744

File: SiO 11.xy
# Created by:        SpecsLab Prodigy, Version 4.50.2-r79252
#
# XY-Serializer Export Settings:
#   Comment Prefix:           #
#   Output meta data:         yes
#   Energy Axis:              Binding Energy
#   Count Rate:               Counts per Second
#   Separate Scan Data:       no
#   Separate Channel Data:    no
#   External Channel Data:    yes
#   Transmission Function:    no
#   ErrorBar:                 no
#   Operation Results:        yes
#   Time Zone Format:         UTC
#
# Group:             Spectrum Group 15
#
# Region:            O1s
# Acquisition Date:  10/25/19 17:57:46 UTC
# Analysis Method:   XPS
# Analyzer:          Phoibos
# Analyzer Lens:     MediumArea:1.5kV
# Analyzer Slit:     5:7x20\B:open
# Scan Mode:         FixedAnalyzerTransmission
# Curves/Scan:       1
# Values/Curve:      491
# Dwell Time:        0.1
# Excitation Energy: 1486.71
# Binding Energy:    570
# Pass Energy:       10
# Bias Voltage:      90
# Detector Voltage:  1900
# Eff. Workfunction: 4.395
# Source:            Focus
# Comment:
#
# Cycle: 0
# Number of Scans: 12
#
# Cycle: 0, Curve: 0
# Acquisition Date: 10/25/19 17:57:46 UTC
#
# ColumnLabels: energy counts/s
#
570  1924.79
569.8  1954.41
569.6  1931.1
569.4  1903.23
569.2  1871.69
569  1880.31
568.8  1916.66
568.6  1861.83
568.4  1862.53
568.2  1765.09
568  1911.98
567.8  1900.5
567.6  1829.77
567.4  1898.391
567.2  1918.86
567  1894.39
566.8  1906.83
566.6  1929.77
566.4  1853.73
566.2  1925.45
566  2026.76
565.8  2013.27
565.6  2043.27
565.4  2056.56
565.2  1996.24
565  2067.52
564.8  2048.32
564.6  2021.58
564.4  2044.11
564.2  2094.76
564  2159.73
563.8  2098.74
563.6  2132.08
563.4  2171.57
563.2  2171.33
563  2219.69
562.8  2193.976
562.6  2220.64
562.4  2193.68
562.2  2284.02
562  2316.47
561.8  2256.04
561.6  2267.79
561.4  2332.09
561.2  2354.74
561  2347.72
560.8  2413.9
560.6  2370.31
560.4  2370.19
560.2  2393.17
560  2397.78
559.8  2390.54
559.6  2406.87
559.4  2303.27
559.2  2357.13
559  2437.07
558.8  2393.85
558.6  2466.868
558.4  2410.76
558.2  2493.08
558  2488.6
557.8  2386.96
557.6  2562.5
557.4  2555.3
557.2  2579.09
557  2614.889
556.8  2679.56
556.6  2678.52
556.4  2657.65
556.2  2604.52
556  2535.07
555.8  2569.03
555.6  2514.78
555.4  2450.17
555.2  2358.41
555  2390.15
554.8  2282.08
554.6  2264.98
554.4  2257.44
554.2  2256.03
554  2175.7
553.8  2188.536
553.6  2208.11
553.4  2143.38
553.2  2108.35
553  2028.8
552.8  2008.06
552.6  1932.45
552.4  1950.61
552.2  1955.333
552  1876.31
551.8  1921.48
551.6  1874.48
551.4  1880.96
551.2  1838.34
551  1847.54
550.8  1858.05
550.6  1789.24
550.4  1823.48
550.2  1874.171
550  1877.26
549.8  1842.69
549.6  1834.21
549.4  1786.38
549.2  1821.78
549  1740.33
548.8  1823.499
548.6  1780.74
548.4  1660.135
548.2  1686.86
548  1668.18
547.8  1677.06
547.6  1618.7
547.4  1585.87
547.2  1610.72
547  1630.52
546.8  1535.951
546.6  1599.45
546.4  1586.01
546.2  1538.84
546  1541.92
545.8  1492.02
545.6  1459.67
545.4  1490.71
545.2  1386.15
545  1307.91
544.8  1254.719
544.6  1251.67
544.4  1226.93
544.2  1136.58
544  1081.55
543.8  1086.63
543.6  1040.33
543.4  966.684
543.2  999.869
543  920.188
542.8  972.136
542.6  989.545
542.4  921.699
542.2  981.962
542  904.6162
541.8  898.961
541.6  947.045
541.4  947.392
541.2  913.494
541  930.057
540.8  930.969
540.6  902.614
540.4  909.011
540.2  916.456
540  919.842
539.8  934.701
539.6  890.6055
539.4  936.145
539.2  907.031
539  905.886
538.8  894.0906
538.6  864.764
538.4  964.642
538.2  971.964
538  957.113
537.8  957.826
537.6  968.875
537.4  997.418
537.2  985.9854
537  1088.79
536.8  1101.9
536.6  1193.87
536.4  1351.84
536.2  1635.29
536  2094.447
535.8  2717.13
535.6  3888.76
535.4  5548.44
535.2  8193.3
535  11437.187
534.8  15382.149
534.6  19297.751
534.4  21829.347
534.2  22691.94
534  20678.951
533.8  17372.652
533.6  12668.519
533.4  8577.11
533.2  5469.29
533  3625.757
532.8  2518.48
532.6  1874.02
532.4  1624.47
532.2  1328.79
532  1229.97
531.8  1137.46
531.6  1049.59
531.4  1036.08
531.2  1002.8
531  912.92
530.8  949.439
530.6  910.648
530.4  927.1
530.2  867.011
530  877.7286
529.8  909.8335
529.6  875.101
529.4  867.04
529.2  869.092
529  820.347
528.8  882.408
528.6  866.324
528.4  866.115
528.2  805.325
528  806.237
527.8  811.916
527.6  870.471
527.4  835.887
527.2  809.93
527  805.4581
526.8  806.0613
526.6  831.806
526.4  854.763
526.2  838.474
526  807.632
525.8  813.537
525.6  789.286
525.4  824.542
525.2  817.365
525  828.267
524.8  799.996
524.6  815.684
524.4  797.433
524.2  808.728
524  811.524
523.8  820.804
523.6  835.517
523.4  846.253
523.2  779.233
523  806.258
522.8  834.279
522.6  820.809
522.4  797.49
522.2  814.957
522  829.525
521.8  785.938
521.6  789.05
521.4  822.054
521.2  848.085
521  827.509

File: SiO 12(Si).xy
# Created by:        SpecsLab Prodigy, Version 4.50.2-r79252
#
# XY-Serializer Export Settings:
#   Comment Prefix:           #
#   Output meta data:         yes
#   Energy Axis:              Binding Energy
#   Count Rate:               Counts per Second
#   Separate Scan Data:       no
#   Separate Channel Data:    no
#   External Channel Data:    yes
#   Transmission Function:    no
#   ErrorBar:                 no
#   Operation Results:        yes
#   Time Zone Format:         UTC
#
# Group:             Spectrum Group 15
#
# Region:            Si2p
# Acquisition Date:  10/25/19 18:01:34 UTC
# Analysis Method:   XPS
# Analyzer:          Phoibos
# Analyzer Lens:     MediumArea:1.5kV
# Analyzer Slit:     5:7x20\B:open
# Scan Mode:         FixedAnalyzerTransmission
# Curves/Scan:       1
# Values/Curve:      151
# Dwell Time:        0.1
# Excitation Energy: 1486.71
# Binding Energy:    110
# Pass Energy:       10
# Bias Voltage:      90
# Detector Voltage:  1900
# Eff. Workfunction: 4.395
# Source:            Focus
# Comment:
#
# Cycle: 0
# Number of Scans: 12
#
# Cycle: 0, Curve: 0
# Acquisition Date: 10/25/19 18:01:34 UTC
#
# ColumnLabels: energy counts/s
#
110  137.21
109.9  155.9331
109.8  138.565
109.7  150.364
109.6  141.864
109.5  154.742
109.4  145.636
109.3  144.496
109.2  145.24
109.1  161.717
109  151.325
108.9  129.234
108.8  146.889
108.7  142.708
108.6  145.762
108.5  125.579
108.4  146.233
108.3  136.659
108.2  154.837
108.1  138
108  132.349
107.9  138.095
107.8  139.255
107.7  143.739
107.6  164.52
107.5  155.4013
107.4  161.153
107.3  171.4289
107.2  179.5
107.1  191.867
107  198.76
106.9  239.8918
106.8  255.355
106.7  322.819
106.6  368.95
106.5  450.434
106.4  543.812
106.3  677.732
106.2  785.177
106.1  1006.41
106  1165.826
105.9  1411.87
105.8  1725.9
105.7  2011.36
105.6  2279.678
105.5  2564
105.4  2838.26
105.3  3126.34
105.2  3327.93
105.1  3543.83
105  3711.49
104.9  3672.93
104.8  3664.76
104.7  3600.3
104.6  3408.03
104.5  3091.236
104.4  2727.12
104.3  2406.08
104.2  2074.65
104.1  1754.72
104  1436.228
103.9  1135.36
103.8  923.42
103.7  765.041
103.6  599.035
103.5  456.2463
103.4  391.892
103.3  335.8175
103.2  278.943
103.1  247.655
103  235.575
102.9  230.423
102.8  198.079
102.7  196.165
102.6  194.824
102.5  194.48
102.4  195.47
102.3  179.315
102.2  153.725
102.1  158.236
102  150.907
101.9  135.589
101.8  148.019
101.7  145.686
101.6  138.753
101.5  150.755
101.4  165.445
101.3  180.692
101.2  172.556
101.1  211.405
101  254.044
100.9  329.897
100.8  451.27
100.7  578.297
100.6  759.832
100.5  895.408
100.4  967.63
100.3  948.614
100.2  964.148
100.1  1036.11
100  1225.17
99.9  1385.66
99.8  1382.05
99.7  1167.42
99.6  784.892
99.5  449.78
99.4  241.343
99.3  141.7235
99.2  115.822
99.1  113.919
99  103.962
98.9  102.229
98.8  99.6479
98.7  83.5264
98.6  103.458
98.5  104.788
98.4  97.6133
98.3  103.409
98.2  94.3562
98.1  87.8124
98  97.8806
97.9  105.815
97.8  104.625
97.7  95.4832
97.6  103.254
97.5  92.3836
97.4  94.0392
97.3  81.6429
97.2  78.2961
97.1  89.9278
97  94.7358
96.9  98.0931
96.8  91.2032
96.7  80.3977
96.6  95.2963
96.5  84.5467
96.4  98.5367
96.3  103.341
96.2  82.4384
96.1  78.7361
96  90.164
95.9  98.7674
95.8  87.0556
95.7  100.575
95.6  90.8219
95.5  98.0169
95.4  89.3911
95.3  89.0457
95.2  88.00017
95.1  86.6863
95  90.5756

File: SiO 13.xy
# Created by:        SpecsLab Prodigy, Version 4.50.2-r79252
#
# XY-Serializer Export Settings:
#   Comment Prefix:           #
#   Output meta data:         yes
#   Energy Axis:              Binding Energy
#   Count Rate:               Counts per Second
#   Separate Scan Data:       no
#   Separate Channel Data:    no
#   External Channel Data:    yes
#   Transmission Function:    no
#   ErrorBar:                 no
#   Operation Results:        yes
#   Time Zone Format:         UTC
#
# Group:             Spectrum Group 25
#
# Region:            C1s
# Acquisition Date:  10/25/19 18:11:28 UTC
# Analysis Method:   XPS
# Analyzer:          Phoibos
# Analyzer Lens:     MediumArea:1.5kV
# Analyzer Slit:     5:7x20\B:open
# Scan Mode:         FixedAnalyzerTransmission
# Curves/Scan:       1
# Values/Curve:      71
# Dwell Time:        0.1
# Excitation Energy: 1486.71
# Binding Energy:    289
# Pass Energy:       10
# Bias Voltage:      90
# Detector Voltage:  1900
# Eff. Workfunction: 4.395
# Source:            Focus
# Comment:
#
# Cycle: 0
# Number of Scans: 12
#
# Cycle: 0, Curve: 0
# Acquisition Date: 10/25/19 18:11:28 UTC
#
# ColumnLabels: energy counts/s
#
289  771.529
288.9  815.036
288.8  823.529
288.7  798.289
288.6  820.724
288.5  784.811
288.4  765.416
288.3  831.209
288.2  823.396
288.1  838.902
288  849.991
287.9  824.017
287.8  836.285
287.7  848.204
287.6  903.673
287.5  859.111
287.4  945.658
287.3  889.225
287.2  927.753
287.1  992.151
287  1004.23
286.9  986.479
286.8  1018.86
286.7  1068.9
286.6  1147.25
286.5  1181.89
286.4  1216.77
286.3  1242.06
286.2  1254.47
286.1  1300.8
286  1323.49
285.9  1303.82
285.8  1277.27
285.7  1213.21
285.6  1153.75
285.5  1114.05
285.4  1086.17
285.3  1078.99
285.2  946.621
285.1  923.0629
285  892.9777
284.9  866.74
284.8  827.644
284.7  832.841
284.6  825.272
284.5  777.786
284.4  736.81
284.3  783.056
284.2  821.636
284.1  806.91
284  804.551
283.9  737.458
283.8  774.442
283.7  762.293
283.6  791.845
283.5  788.9126
283.4  772.649
283.3  792.225
283.2  786.223
283.1  799.6604
283  744.446
282.9  737.236
282.8  719.978
282.7  750.7
282.6  788.017
282.5  762.705
282.4  774.638
282.3  785.424
282.2  735.767
282.1  779.21
282  747.481

File: SiO 14.xy
# Created by:        SpecsLab Prodigy, Version 4.50.2-r79252
#
# XY-Serializer Export Settings:
#   Comment Prefix:           #
#   Output meta data:         yes
#   Energy Axis:              Binding Energy
#   Count Rate:               Counts per Second
#   Separate Scan Data:       no
#   Separate Channel Data:    no
#   External Channel Data:    yes
#   Transmission Function:    no
#   ErrorBar:                 no
#   Operation Results:        yes
#   Time Zone Format:         UTC
#
# Group:             Spectrum Group 25
#
# Region:            O1s
# Acquisition Date:  10/25/19 18:22:51 UTC
# Analysis Method:   XPS
# Analyzer:          Phoibos
# Analyzer Lens:     MediumArea:1.5kV
# Analyzer Slit:     5:7x20\B:open
# Scan Mode:         FixedAnalyzerTransmission
# Curves/Scan:       1
# Values/Curve:      491
# Dwell Time:        0.1
# Excitation Energy: 1486.71
# Binding Energy:    570
# Pass Energy:       10
# Bias Voltage:      90
# Detector Voltage:  1900
# Eff. Workfunction: 4.395
# Source:            Focus
# Comment:
#
# Cycle: 0
# Number of Scans: 12
#
# Cycle: 0, Curve: 0
# Acquisition Date: 10/25/19 18:22:51 UTC
#
# ColumnLabels: energy counts/s
#
570  1654.3
569.8  1655.21
569.6  1628.92
569.4  1666.53
569.2  1618.834
569  1644.73
568.8  1617.75
568.6  1557.94
568.4  1664.13
568.2  1556.44
568  1569.11
567.8  1620.95
567.6  1657.78
567.4  1592.45
567.2  1569.38
567  1570.312
566.8  1614.46
566.6  1649.99
566.4  1740.46
566.2  1638.19
566  1744.34
565.8  1675.71
565.6  1638.889
565.4  1765.31
565.2  1706.85
565  1752.87
564.8  1754.64
564.6  1736.08
564.4  1785.43
564.2  1837.66
564  1810.31
563.8  1775.43
563.6  1773.11
563.4  1780.11
563.2  1878.01
563  1858.04
562.8  1883.65
562.6  1848.38
562.4  1951.99
562.2  1846.15
562  1902.24
561.8  1931.96
561.6  1947.37
561.4  2004.97
561.2  2007.17
561  2062.64
560.8  2073.42
560.6  1958.47
560.4  1992.653
560.2  2036.87
560  2041.56
559.8  2033.56
559.6  2055.53
559.4  2049.57
559.2  2066.74
559  2060.61
558.8  2082.723
558.6  2103.36
558.4  2098.59
558.2  2017.6
558  2098.43
557.8  2106.96
557.6  2186.13
557.4  2157.53
557.2  2179.876
557  2268.67
556.8  2214.93
556.6  2208.15
556.4  2311.11
556.2  2230.3
556  2240.53
555.8  2241.71
555.6  2177.88
555.4  2079.77
555.2  2071.55
555  1933.15
554.8  1943.337
554.6  1993.05
554.4  1938.99
554.2  1896.93
554  1889.99
553.8  1827.5
553.6  1839.28
553.4  1803.78
553.2  1758.96
553  1749.65
552.8  1728.42
552.6  1699.8
552.4  1697.99
552.2  1622.703
552  1633.98
551.8  1629.03
551.6  1639.929
551.4  1601.9
551.2  1563.73
551  1599.24
550.8  1596.32
550.6  1497.47
550.4  1586.22
550.2  1576.85
550  1558.09
549.8  1590.56
549.6  1593.94
549.4  1548.233
549.2  1543.09
549  1518.6
548.8  1476.31
548.6  1493.46
548.4  1475
548.2  1465.78
548  1417.97
547.8  1411.38
547.6  1429.51
547.4  1361.43
547.2  1384.883
547  1375.8
546.8  1344.42
546.6  1359.62
546.4  1334.17
546.2  1317.51
546  1379.69
545.8  1293.81
545.6  1286.65
545.4  1234.35
545.2  1209.69
545  1130.97
544.8  1151.9
544.6  1128.24
544.4  1029.58
544.2  1015.37
544  917.377
543.8  925.178
543.6  933.882
543.4  870.898
543.2  867.314
543  839.304
542.8  814.804
542.6  828.804
542.4  788.332
542.2  795.988
542  833.592
541.8  781.09
541.6  805.853
541.4  812.631
541.2  785.637
541  799.191
540.8  765.148
540.6  771.301
540.4  826.933
540.2  758.287
540  802.196
539.8  783.635
539.6  785.9
539.4  771.915
539.2  797.6057
539  793.5
538.8  760.775
538.6  802.017
538.4  821.089
538.2  796.3319
538  819.503
537.8  803.891
537.6  808.121
537.4  871.164
537.2  891.196
537  896.127
536.8  902.359
536.6  962.047
536.4  1099.9
536.2  1222.04
536  1554.11
535.8  2042.13
535.6  2875.49
535.4  4115.84
535.2  6258.7
535  9216.99
534.8  12450.2
534.6  16184.031
534.4  18691.124
534.2  19910.868
534  18642.622
533.8  15439.942
533.6  11440.2
533.4  7842.34
533.2  5084.93
533  3265.62
532.8  2241.48
532.6  1717.07
532.4  1399.86
532.2  1254.5
532  1077.94
531.8  1038.75
531.6  982.278
531.4  890.479
531.2  841.043
531  896.383
530.8  803.3992
530.6  778.315
530.4  789.889
530.2  753.093
530  781.875
529.8  740.461
529.6  746.153
529.4  752.509
529.2  743.272
529  762.044
528.8  719.139
528.6  737.561
528.4  699.807
528.2  694.844
528  724.532
527.8  738.855
527.6  727.332
527.4  751.515
527.2  706.579
527  704.145
526.8  687.289
526.6  702.613
526.4  696.533
526.2  690.198
526  689.586
525.8  652.8
525.6  705.8
525.4  728.959
525.2  675.536
525  685.536
524.8  710.272
524.6  737.2555
524.4  679.0941
524.2  679.507
524  686.275
523.8  683.474
523.6  693.771
523.4  699.288
523.2  679.548
523  709.065
522.8  724.002
522.6  672.801
522.4  702.799
522.2  708.392
522  732.049
521.8  673.209
521.6  701.673
521.4  662.146
521.2  683.235
521  681.801

File: SiO 15(Si).xy
# Created by:        SpecsLab Prodigy, Version 4.50.2-r79252
#
# XY-Serializer Export Settings:
#   Comment Prefix:           #
#   Output meta data:         yes
#   Energy Axis:              Binding Energy
#   Count Rate:               Counts per Second
#   Separate Scan Data:       no
#   Separate Channel Data:    no
#   External Channel Data:    yes
#   Transmission Function:    no
#   ErrorBar:                 no
#   Operation Results:        yes
#   Time Zone Format:         UTC
#
# Group:             Spectrum Group 25
#
# Region:            Si2p
# Acquisition Date:  10/25/19 18:26:40 UTC
# Analysis Method:   XPS
# Analyzer:          Phoibos
# Analyzer Lens:     MediumArea:1.5kV
# Analyzer Slit:     5:7x20\B:open
# Scan Mode:         FixedAnalyzerTransmission
# Curves/Scan:       1
# Values/Curve:      151
# Dwell Time:        0.1
# Excitation Energy: 1486.71
# Binding Energy:    110
# Pass Energy:       10
# Bias Voltage:      90
# Detector Voltage:  1900
# Eff. Workfunction: 4.395
# Source:            Focus
# Comment:
#
# Cycle: 0
# Number of Scans: 12
#
# Cycle: 0, Curve: 0
# Acquisition Date: 10/25/19 18:26:40 UTC
#
# ColumnLabels: energy counts/s
#
110  126.402
109.9  136.69
109.8  128.384
109.7  116.02
109.6  116.529
109.5  132.827
109.4  126.981
109.3  126.12
109.2  116.117
109.1  144.029
109  131.445
108.9  118.183
108.8  126.024
108.7  121.829
108.6  124.52
108.5  129.3844
108.4  117.787
108.3  130.463
108.2  135.998
108.1  127.039
108  116.213
107.9  122.861
107.8  137.364
107.7  137.314
107.6  141.92
107.5  147.87
107.4  148.824
107.3  140.539
107.2  162.8182
107.1  170.783
107  161.728
106.9  167.802
106.8  203.476
106.7  240.06
106.6  284.102
106.5  336.841
106.4  394.484
106.3  498.918
106.2  617.702
106.1  728.132
106  925.339
105.9  1096.19
105.8  1297.84
105.7  1525.37
105.6  1789.72
105.5  2067.52
105.4  2355.01
105.3  2592.76
105.2  2742.11
105.1  3006.52
105  3135.9
104.9  3217.18
104.8  3206.17
104.7  3158.12
104.6  2943.51
104.5  2771.27
104.4  2577.28
104.3  2240.51
104.2  1972.55
104.1  1666.28
104  1378.9
103.9  1108.84
103.8  856.695
103.7  703.7195
103.6  553.241
103.5  450.024
103.4  348.879
103.3  313.341
103.2  287.197
103.1  252.222
103  231.671
102.9  204.685
102.8  201.526
102.7  186.343
102.6  188.916
102.5  170.086
102.4  163.741
102.3  147.331
102.2  135.512
102.1  161.738
102  144.832
101.9  136.694
101.8  120.058
101.7  127.9016
101.6  145.618
101.5  143.431
101.4  158.784
101.3  166.112
101.2  155.22
101.1  177.346
101  235.623
100.9  265.9074
100.8  378.1172
100.7  475.1913
100.6  665.983
100.5  797.125
100.4  834.588
100.3  885.094
100.2  867.741
100.1  917.758
100  1107.87
99.9  1244.23
99.8  1304.39
99.7  1122.53
99.6  775.4672
99.5  473.684
99.4  255.538
99.3  148.031
99.2  120.65
99.1  107.436
99  89.40857
98.9  84.6751
98.8  95.6489
98.7  88.8496
98.6  84.6751
98.5  90.308
98.4  85.361
98.3  78.2868
98.2  95.1484
98.1  84.8854
98  66.1319
97.9  72.7672
97.8  78.3533
97.7  82.2497
97.6  71.175
97.5  63.6644
97.4  83.2971
97.3  86.8555
97.2  77.8473
97.1  74.9208
97  74.2443
96.9  87.9251
96.8  79.8637
96.7  80.154
96.6  77.4398
96.5  75.0686
96.4  76.8366
96.3  68.075
96.2  65.7026
96.1  73.5286
96  88.7207
95.9  78.60147
95.8  79.832
95.7  96.4254
95.6  90.0164
95.5  82.0794
95.4  72.8407
95.3  83.82791
95.2  77.6761
95.1  67.3254
95  74.2191

File: SiO 16.xy
# Created by:        SpecsLab Prodigy, Version 4.50.2-r79252
#
# XY-Serializer Export Settings:
#   Comment Prefix:           #
#   Output meta data:         yes
#   Energy Axis:              Binding Energy
#   Count Rate:               Counts per Second
#   Separate Scan Data:       no
#   Separate Channel Data:    no
#   External Channel Data:    yes
#   Transmission Function:    no
#   ErrorBar:                 no
#   Operation Results:        yes
#   Time Zone Format:         UTC
#
# Group:             Spectrum Group 35
#
# Region:            C1s
# Acquisition Date:  10/25/19 18:37:03 UTC
# Analysis Method:   XPS
# Analyzer:          Phoibos
# Analyzer Lens:     MediumArea:1.5kV
# Analyzer Slit:     5:7x20\B:open
# Scan Mode:         FixedAnalyzerTransmission
# Curves/Scan:       1
# Values/Curve:      71
# Dwell Time:        0.1
# Excitation Energy: 1486.71
# Binding Energy:    289
# Pass Energy:       10
# Bias Voltage:      90
# Detector Voltage:  1900
# Eff. Workfunction: 4.395
# Source:            Focus
# Comment:
#
# Cycle: 0
# Number of Scans: 12
#
# Cycle: 0, Curve: 0
# Acquisition Date: 10/25/19 18:37:03 UTC
#
# ColumnLabels: energy counts/s
#
289  682.4181
288.9  685.48
288.8  650.817
288.7  724.465
288.6  715.206
288.5  682.945
288.4  730.663
288.3  733.493
288.2  704.676
288.1  722.6454
288  708.84
287.9  717.934
287.8  684.999
287.7  724.483
287.6  720.517
287.5  721.168
287.4  759.971
287.3  777.225
287.2  781.387
287.1  844.3004
287  885.655
286.9  894.766
286.8  934.38
286.7  990.473
286.6  998.957
286.5  1049.38
286.4  1106.61
286.3  1118.28
286.2  1156.6
286.1  1158.88
286  1153.97
285.9  1128.3
285.8  1146.7
285.7  1041.22
285.6  1050.56
285.5  1004.6
285.4  964.26
285.3  933.051
285.2  807.331
285.1  761.341
285  741.74
284.9  762.822
284.8  701.952
284.7  698.058
284.6  672.241
284.5  680.835
284.4  677.8219
284.3  665.493
284.2  678.433
284.1  733.434
284  718.8302
283.9  660.404
283.8  658.8084
283.7  708.6407
283.6  678.558
283.5  690.668
283.4  667.632
283.3  683.6434
283.2  680.765
283.1  661.614
283  653.42
282.9  630.866
282.8  678.131
282.7  685.9
282.6  699.8581
282.5  698.587
282.4  689.006
282.3  683.439
282.2  678.004
282.1  671.289
282  695.57