Folder: XPS_silicon_waffer_angular_data (part 4)

File: SiO 24(Si).xy
# Created by:        SpecsLab Prodigy, Version 4.50.2-r79252
#
# XY-Serializer Export Settings:
#   Comment Prefix:           #
#   Output meta data:         yes
#   Energy Axis:              Binding Energy
#   Count Rate:               Counts per Second
#   Separate Scan Data:       no
#   Separate Channel Data:    no
#   External Channel Data:    yes
#   Transmission Function:    no
#   ErrorBar:                 no
#   Operation Results:        yes
#   Time Zone Format:         UTC
#
# Group:             Spectrum Group 55
#
# Region:            Si2p
# Acquisition Date:  10/25/19 19:53:36 UTC
# Analysis Method:   XPS
# Analyzer:          Phoibos
# Analyzer Lens:     MediumArea:1.5kV
# Analyzer Slit:     5:7x20\B:open
# Scan Mode:         FixedAnalyzerTransmission
# Curves/Scan:       1
# Values/Curve:      151
# Dwell Time:        0.1
# Excitation Energy: 1486.71
# Binding Energy:    110
# Pass Energy:       10
# Bias Voltage:      90
# Detector Voltage:  1900
# Eff. Workfunction: 4.395
# Source:            Focus
# Comment:
#
# Cycle: 0
# Number of Scans: 12
#
# Cycle: 0, Curve: 0
# Acquisition Date: 10/25/19 19:53:36 UTC
#
# ColumnLabels: energy counts/s
#
110  78.48925
109.9  70.8577
109.8  58.305
109.7  78.7499
109.6  70.3195
109.5  76.6218
109.4  70.9672
109.3  89.2787
109.2  80.1305
109.1  66.4401
109  61.4052
108.9  79.14505
108.8  76.1308
108.7  75.8255
108.6  68.7875
108.5  81.2129
108.4  73.9668
108.3  71.80234
108.2  78.3126
108.1  68.1291
108  73.20728
107.9  66.4506
107.8  70.7282
107.7  74.9579
107.6  77.9812
107.5  89.095
107.4  91.8634
107.3  78.4776
107.2  81.9944
107.1  101.332
107  92.2425
106.9  103.761
106.8  127.826
106.7  171.752
106.6  189.595
106.5  233.49
106.4  280.164
106.3  380.497
106.2  426.585
106.1  559.845
106  669.816
105.9  797.493
105.8  1009.84
105.7  1194.97
105.6  1387.784
105.5  1608.53
105.4  1721.4
105.3  1935.04
105.2  2064.58
105.1  2140.35
105  2154.67
104.9  2202.14
104.8  2029.54
104.7  2001.95
104.6  1913.32
104.5  1676.48
104.4  1500.06
104.3  1249.34
104.2  1068.07
104.1  851.9438
104  677.012
103.9  524.044
103.8  445.932
103.7  348.459
103.6  305.016
103.5  236.889
103.4  216.377
103.3  174.333
103.2  164.85
103.1  146.717
103  138.71
102.9  123.112
102.8  105.154
102.7  110.966
102.6  101.5223
102.5  96.2512
102.4  90.2665
102.3  83.4016
102.2  82.69966
102.1  75.1529
102  81.5073
101.9  66.87604
101.8  73.6794
101.7  82.8927
101.6  76.7793
101.5  89.6022
101.4  73.7994
101.3  75.1093
101.2  94.5256
101.1  95.2176
101  98.8905
100.9  113.18
100.8  140.732
100.7  198.662
100.6  224.75
100.5  262.6063
100.4  257.158
100.3  230.017
100.2  255.714
100.1  276.6006
100  336.336
99.9  334.048
99.8  283.255
99.7  234.377
99.6  165.393
99.5  104.5854
99.4  59.9379
99.3  53.24484
99.2  68.7711
99.1  61.7196
99  66.9371
98.9  54.3459
98.8  67.8888
98.7  57.3723
98.6  51.5002
98.5  53.22946
98.4  50.7915
98.3  56.5952
98.2  65.2355
98.1  56.50285
98  63.8609
97.9  61.4989
97.8  49.4994
97.7  57.9963
97.6  55.1051
97.5  58.62565
97.4  64.1866
97.3  61.9442
97.2  53.2578
97.1  56.4257
97  53.08939
96.9  54.6706
96.8  54.0682
96.7  66.8419
96.6  65.0505
96.5  67.35
96.4  56.634
96.3  54.5875
96.2  61.4224
96.1  59.966
96  61.5301
95.9  53.85092
95.8  62.4483
95.7  61.5392
95.6  57.5105
95.5  57.8682
95.4  53.7051
95.3  51.5765
95.2  51.1631
95.1  55.4486
95  60.1008

File: SiOx.xy
# Created by:        SpecsLab Prodigy, Version 4.50.2-r79252
#
# XY-Serializer Export Settings:
#   Comment Prefix:           #
#   Output meta data:         yes
#   Energy Axis:              Binding Energy
#   Count Rate:               Counts per Second
#   Separate Scan Data:       no
#   Separate Channel Data:    no
#   External Channel Data:    yes
#   Transmission Function:    no
#   ErrorBar:                 no
#   Operation Results:        yes
#   Time Zone Format:         UTC
#
# Group:             Spectrum Group 0
#
# Region:            Survey
# Acquisition Date:  10/25/19 16:37:31 UTC
# Analysis Method:   XPS
# Analyzer:          Phoibos
# Analyzer Lens:     MediumArea:1.5kV
# Analyzer Slit:     5:7x20\B:open
# Scan Mode:         FixedAnalyzerTransmission
# Curves/Scan:       1
# Values/Curve:      1201
# Dwell Time:        0.1
# Excitation Energy: 1486.71
# Binding Energy:    1200
# Pass Energy:       50
# Bias Voltage:      90
# Detector Voltage:  1900
# Eff. Workfunction: 4.395
# Source:            Focus
# Comment:
#
# Cycle: 0
# Number of Scans: 1
#
# Cycle: 0, Curve: 0
# Acquisition Date: 10/25/19 16:37:31 UTC
#
# ColumnLabels: energy counts/s
#
1200  18360.107
1195  19253.325
1190  18496.682
1185  18716.738
1180  18927.509
1175  18256.031
1170  18705.269
1165  19198.063
1160  18650.022
1155  19794.157
1150  19027.902
1145  18297.569
1140  18801.509
1135  18848.676
1130  19394.174
1125  19226.371
1120  19672.229
1115  19747.197
1110  20812.509
1105  20374.267
1100  20248.7
1095  20018.662
1090  20542.622
1085  20780.166
1080  21089.047
1075  20882.062
1070  21320.962
1065  21997.001
1060  22430.163
1055  22708.688
1050  23519.753
1045  23111.535
1040  23383.362
1035  24291.838
1030  24886.284
1025  25374.741
1020  26639.581
1015  25360.977
1010  26206.818
1005  30166.395
1000  27144.554
995  24538.368
990  25019.907
985  34219.34
980  38480.534
975  20662.843
970  13161.155
965  11545.793
960  10819.268
955  10724.726
950  11011.147
945  10958.412
940  10887.66
935  11439.826
930  11345.263
925  11727.445
920  11532.319
915  11116.715
910  11621.827
905  12271.448
900  12127.234
895  12186.38
890  12422.083
885  12786.958
880  12719.116
875  13669.177
870  12225.653
865  13035.657
860  13277.183
855  13519.031
850  13401.766
845  13651.124
840  14085.971
835  13770.807
830  14145.639
825  14498.722
820  13846.843
815  14307.956
810  14916.176
805  15057.344
800  14972.411
795  14851.596
790  15120.767
785  15514.828
780  15754.077
775  16115.765
770  16515.437
765  16508.428
760  16299.643
755  16500.752
750  16548.454
745  17497.351
740  17146.49
735  16751.183
730  17987.293
725  18177.348
720  18575.563
715  18664.723
710  19947.773
705  18795.932
700  19257.9
695  19754.027
690  20682.55
685  20403.106
680  19971.7
675  20922.821
670  20794.693
665  21464.407
660  22079.521
655  22426.899
650  22442.839
645  22833.607
640  23857.561
635  24407.6
630  24255.849
625  24493.609
620  24972.87
615  25687.609
610  26497.698
605  25982.106
600  27252.594
595  27332.151
590  28934.603
585  29503.8
580  30135.146
575  29947.416
570  29442.989
565  31162.805
560  36583.453
555  36895.795
550  28112.605
545  20556.87
540  14077.08
535  172313.55
530  14005.41
525  12394.436
520  13137.11
515  12361.36
510  12819.807
505  13036.276
500  13323.817
495  13746.483
490  13140.154
485  13175.712
480  13157.222
475  13393.117
470  13047.284
465  12986.94
460  14294.579
455  13859.859
450  13652.09
445  13458.568
440  14241.451
435  13733.389
430  14381.09
425  14146.976
420  14642.603
415  14577
410  14340.696
405  13989.016
400  14796.482
395  14723.618
390  14510.811
385  14388.381
380  15420.029
375  14900.83
370  14045.839
365  14386.55
360  14620.264
355  14603.389
350  15050.152
345  15029.601
340  15237.318
335  15378.935
330  15588.227
325  15603.011
320  15183.856
315  15618.78
310  16316.761
305  15509.067
300  15485.007
295  15931.475
290  16373.061
285  19486.627
280  15592.501
275  15948.143
270  15849.092
265  15643.391
260  15378.504
255  16119.498
250  16378.606
245  16736.048
240  17498.659
235  16480.626
230  16330.142
225  16733.7
220  16699.831
215  16239.837
210  16189.782
205  17061.186
200  17243.457
195  16535.416
190  16963.153
185  17394.074
180  17076.417
175  17093.115
170  16797.316
165  12668.362
160  12576.317
155  39469.759
150  15196.164
145  9153.37
140  8972.09
135  8859.97
130  8816.17
125  9351.5
120  8561.3
115  5953.38
110  2908.99
105  53060.564
100  15673.543
95  1571.7
90  1584.65
85  1692.89
80  1592.92
75  1844.03
70  1983.96
65  1878.34
60  1875.06
55  2352.28
50  2437.59
45  1909.75
40  1807.01
35  1648.59
30  3259.07
25  4252.624
20  538.625
15  2107.24
10  1908.07
5  346.474
0  40.69169

# Region:            C1s
# Acquisition Date:  10/25/19 16:55:32 UTC
# Analysis Method:   XPS
# Analyzer:          Phoibos
# Analyzer Lens:     MediumArea:1.5kV
# Analyzer Slit:     5:7x20\B:open
# Scan Mode:         FixedAnalyzerTransmission
# Curves/Scan:       1
# Values/Curve:      71
# Dwell Time:        0.1
# Excitation Energy: 1486.71
# Binding Energy:    289
# Pass Energy:       10
# Bias Voltage:      90
# Detector Voltage:  1900
# Eff. Workfunction: 4.395
# Source:            Focus
# Comment:
#
# Cycle: 0
# Number of Scans: 12
#
# Cycle: 0, Curve: 0
# Acquisition Date: 10/25/19 16:55:32 UTC
#
# ColumnLabels: energy counts/s
#
289  1046.69
288.9  1078.87
288.8  1068
288.7  1057.01
288.6  1046.42
288.5  1168.77
288.4  1133.43
288.3  1123.98
288.2  1097.22
288.1  1120.765
288  1082.48
287.9  1149.5
287.8  1148.23
287.7  1180.44
287.6  1121.39
287.5  1191.83
287.4  1187.94
287.3  1183.349
287.2  1215.78
287.1  1258.32
287  1309.75
286.9  1370.18
286.8  1439.63
286.7  1513.063
286.6  1568.81
286.5  1659.8
286.4  1665.952
286.3  1704.35
286.2  1718.93
286.1  1750.4
286  1724.84
285.9  1715.11
285.8  1648.6
285.7  1574.58
285.6  1493.66
285.5  1447.36
285.4  1371.39
285.3  1332.37
285.2  1189.55
285.1  1171.63
285  1171.17
284.9  1101.65
284.8  1100.2
284.7  1054.67
284.6  972.284
284.5  988.774
284.4  1034.94
284.3  1040.39
284.2  1016.914
284.1  1042.71
284  1040.21
283.9  1013.17
283.8  1014.86
283.7  1019.01
283.6  1070.64
283.5  1044.8
283.4  1037.17
283.3  1050.404
283.2  1034.86
283.1  1045.08
283  1028.08
282.9  997.997
282.8  1011.18
282.7  1029.37
282.6  996.727
282.5  1029.18
282.4  1078.368
282.3  1081.56
282.2  1045.39
282.1  1039.34
282  1070.86

# Region:            O1s
# Acquisition Date:  10/25/19 17:06:56 UTC
# Analysis Method:   XPS
# Analyzer:          Phoibos
# Analyzer Lens:     MediumArea:1.5kV
# Analyzer Slit:     5:7x20\B:open
# Scan Mode:         FixedAnalyzerTransmission
# Curves/Scan:       1
# Values/Curve:      491
# Dwell Time:        0.1
# Excitation Energy: 1486.71
# Binding Energy:    570
# Pass Energy:       10
# Bias Voltage:      90
# Detector Voltage:  1900
# Eff. Workfunction: 4.395
# Source:            Focus
# Comment:
#
# Cycle: 0
# Number of Scans: 12
#
# Cycle: 0, Curve: 0
# Acquisition Date: 10/25/19 17:06:56 UTC
#
# ColumnLabels: energy counts/s
#
570  2373.78
569.8  2328.56
569.6  2344.6
569.4  2310.816
569.2  2307.49
569  2267.32
568.8  2256.47
568.6  2268.2
568.4  2293.21
568.2  2249.15
568  2272.2
567.8  2235.25
567.6  2232.25
567.4  2213.23
567.2  2246.8
567  2368.671
566.8  2344.99
566.6  2413.97
[...]
532  582.284
531.8  552.876
531.6  502.3397
531.4  483.606
531.2  496.147
531  449.925
530.8  419.1181
530.6  431.318
530.4  392.245
530.2  440.5884
530  420.385
529.8  427.603
529.6  425.858
529.4  386.118
529.2  377.769
529  401.159
528.8  383.665
528.6  372.431
528.4  387.722
528.2  377.212
528  408.544
527.8  375.263
527.6  380.848
527.4  391.216
527.2  386.8094
527  365.277
526.8  391.3093
526.6  367.9963
526.4  377.897
526.2  367.119
526  366.155
525.8  385.702
525.6  404.335
525.4  379.655
525.2  373.595
525  392.564
524.8  369.147
524.6  377.12
524.4  353.548
524.2  385.735
524  368.1044
523.8  365.244
523.6  362.232
523.4  355.214
523.2  396.633
523  353.669
522.8  375.384
522.6  350.28
522.4  389.981
522.2  361.065
522  356.668
521.8  381.387
521.6  350.143
521.4  367.697
521.2  385.79
521  382.413

# Region:            Si2p
# Acquisition Date:  10/25/19 19:53:36 UTC
# Analysis Method:   XPS
# Analyzer:          Phoibos
# Analyzer Lens:     MediumArea:1.5kV
# Analyzer Slit:     5:7x20\B:open
# Scan Mode:         FixedAnalyzerTransmission
# Curves/Scan:       1
# Values/Curve:      151
# Dwell Time:        0.1
# Excitation Energy: 1486.71
# Binding Energy:    110
# Pass Energy:       10
# Bias Voltage:      90
# Detector Voltage:  1900
# Eff. Workfunction: 4.395
# Source:            Focus
# Comment:
#
# Cycle: 0
# Number of Scans: 12
#
# Cycle: 0, Curve: 0
# Acquisition Date: 10/25/19 19:53:36 UTC
#
# ColumnLabels: energy counts/s
#
110  78.48925
109.9  70.8577
109.8  58.305
109.7  78.7499
109.6  70.3195
109.5  76.6218
109.4  70.9672
109.3  89.2787
109.2  80.1305
109.1  66.4401
109  61.4052
108.9  79.14505
108.8  76.1308
108.7  75.8255
108.6  68.7875
108.5  81.2129
108.4  73.9668
108.3  71.80234
108.2  78.3126
108.1  68.1291
108  73.20728
107.9  66.4506
107.8  70.7282
107.7  74.9579
107.6  77.9812
107.5  89.095
107.4  91.8634
107.3  78.4776
107.2  81.9944
107.1  101.332
107  92.2425
106.9  103.761
106.8  127.826
106.7  171.752
106.6  189.595
106.5  233.49
106.4  280.164
106.3  380.497
106.2  426.585
106.1  559.845
106  669.816
105.9  797.493
105.8  1009.84
105.7  1194.97
105.6  1387.784
105.5  1608.53
105.4  1721.4
105.3  1935.04
105.2  2064.58
105.1  2140.35
105  2154.67
104.9  2202.14
104.8  2029.54
104.7  2001.95
104.6  1913.32
104.5  1676.48
104.4  1500.06
104.3  1249.34
104.2  1068.07
104.1  851.9438
104  677.012
103.9  524.044
103.8  445.932
103.7  348.459
103.6  305.016
103.5  236.889
103.4  216.377
103.3  174.333
103.2  164.85
103.1  146.717
103  138.71
102.9  123.112
102.8  105.154
102.7  110.966
102.6  101.5223
102.5  96.2512
102.4  90.2665
102.3  83.4016
102.2  82.69966
102.1  75.1529
102  81.5073
101.9  66.87604
101.8  73.6794
101.7  82.8927
101.6  76.7793
101.5  89.6022
101.4  73.7994
101.3  75.1093
101.2  94.5256
101.1  95.2176
101  98.8905
100.9  113.18
100.8  140.732
100.7  198.662
100.6  224.75
100.5  262.6063
100.4  257.158
100.3  230.017
100.2  255.714
100.1  276.6006
100  336.336
99.9  334.048
99.8  283.255
99.7  234.377
99.6  165.393
99.5  104.5854
99.4  59.9379
99.3  53.24484
99.2  68.7711
99.1  61.7196
99  66.9371
98.9  54.3459
98.8  67.8888
98.7  57.3723
98.6  51.5002
98.5  53.22946
98.4  50.7915
98.3  56.5952
98.2  65.2355
98.1  56.50285
98  63.8609
97.9  61.4989
97.8  49.4994
97.7  57.9963
97.6  55.1051
97.5  58.62565
97.4  64.1866
97.3  61.9442
97.2  53.2578
97.1  56.4257
97  53.08939
96.9  54.6706
96.8  54.0682
96.7  66.8419
96.6  65.0505
96.5  67.35
96.4  56.634
96.3  54.5875
96.2  61.4224
96.1  59.966
96  61.5301
95.9  53.85092
95.8  62.4483
95.7  61.5392
95.6  57.5105
95.5  57.8682
95.4  53.7051
95.3  51.5765
95.2  51.1631
95.1  55.4486
95  60.1008