Folder: XPS_silicon_waffer_angular_data/Silicio2p/OxidoInfinito (part 2)

File: OxidoInfinito_single 15.xy
# Created by:        SpecsLab Prodigy, Version 4.50.2-r79252
#
# XY-Serializer Export Settings:
#   Comment Prefix:           #
#   Output meta data:         yes
#   Energy Axis:              Binding Energy
#   Count Rate:               Counts per Second
#   Separate Scan Data:       no
#   Separate Channel Data:    no
#   External Channel Data:    yes
#   Transmission Function:    no
#   ErrorBar:                 no
#   Operation Results:        yes
#   Time Zone Format:         UTC
#
# Group:             Spectrum Group 25
#
# Region:            Si2p
# Acquisition Date:  10/31/19 01:14:41 UTC
# Analysis Method:   XPS
# Analyzer:          Phoibos
# Analyzer Lens:     MediumArea:1.5kV
# Analyzer Slit:     5:7x20\B:open
# Scan Mode:         FixedAnalyzerTransmission
# Curves/Scan:       1
# Values/Curve:      161
# Dwell Time:        0.1
# Excitation Energy: 1486.71
# Binding Energy:    108
# Pass Energy:       10
# Bias Voltage:      90
# Detector Voltage:  1900
# Eff. Workfunction: 4.395
# Source:            Focus
# Comment:
#
# Cycle: 0
# Number of Scans: 15
#
# Cycle: 0, Curve: 0
# Acquisition Date: 10/31/19 01:14:41 UTC
#
# ColumnLabels: energy counts/s
#
108  106.191
107.9  112.026
107.8  108.603
107.7  108.733
107.6  106.106
107.5  107.885
107.4  116.524
107.3  117.686
107.2  105.151
107.1  106.127
107  99.8184
106.9  95.1636
106.8  107.9911
106.7  115.42
106.6  115.928
106.5  105.3144
106.4  110.203
106.3  118.895
106.2  150.174
106.1  163.106
106  152.953
105.9  186.445
105.8  210.015
105.7  262.205
105.6  322.346
105.5  398.996
105.4  517.963
105.3  632.709
105.2  745.911
105.1  917.858
105  1104.16
104.9  1325.473
104.8  1555.49
104.7  1768.9
104.6  1978.73
104.5  2142.61
104.4  2275.517
104.3  2392.15
104.2  2366.64
104.1  2292.21
104  2365.139
103.9  2200.91
103.8  2050.86
103.7  1851.07
103.6  1654.74
103.5  1425.08
103.4  1272.68
103.3  1161.19
103.2  1048.73
103.1  954.5239
103  913.679
102.9  887.658
102.8  816.919
102.7  886.835
102.6  851.619
102.5  766.259
102.4  695.992
102.3  641.566
102.2  526.47
102.1  446.088
102  361.627
101.9  281.704
101.8  226.556
101.7  197.663
101.6  157.639
101.5  142.524
101.4  127.918
101.3  123.614
101.2  120.855
101.1  109.63
101  100.44
100.9  106.278
100.8  115.196
100.7  112.2
100.6  104.368
100.5  109.005
100.4  125.537
100.3  114.301
100.2  115.238
100.1  111.0522
100  101.9823
99.9  119.327
99.8  117.967
99.7  107.442
99.6  117.551
99.5  101.774
99.4  94.62379
99.3  91.6331
99.2  107.136
99.1  104.4886
99  113.111
98.9  98.9473
98.8  97.3575
98.7  89.4711
98.6  96.2647
98.5  103.451
98.4  102.079
98.3  110.033
98.2  109.573
98.1  93.2755
98  99.1712
97.9  101.084
97.8  92.7947
97.7  90.3961
97.6  98.886
97.5  101.907
97.4  106.1383
97.3  109.65
97.2  91.3977
97.1  103.842
97  105.466
96.9  110.8888
96.8  103.38
96.7  98.3002
96.6  103.882
96.5  95.0675
96.4  85.8248
96.3  100.163
96.2  99.8696
96.1  89.3833
96  95.9651
95.9  105.229
95.8  104.16
95.7  98.1178
95.6  96.3445
95.5  97.4442
95.4  94.4853
95.3  95.4334
95.2  99.8017
95.1  103.791
95  99.9139
94.9  98.9366
94.8  99.8532
94.7  103.811
94.6  106.545
94.5  106.5795
94.4  89.4557
94.3  112.989
94.2  104.692
94.1  105.7127
94  88.99464
93.9  90.6906
93.8  107.403
93.7  107.873
93.6  96.0915
93.5  109.209
93.4  109.85
93.3  93.1449
93.2  82.9919
93.1  89.6748
93  108.4496
92.9  110.748
92.8  100.7489
92.7  97.6224
92.6  97.8989
92.5  99.3826
92.4  92.4024
92.3  107.406
92.2  105.4354
92.1  113.36
92  107.515

File: OxidoInfinito_single 18.xy
# Created by:        SpecsLab Prodigy, Version 4.50.2-r79252
#
# XY-Serializer Export Settings:
#   Comment Prefix:           #
#   Output meta data:         yes
#   Energy Axis:              Binding Energy
#   Count Rate:               Counts per Second
#   Separate Scan Data:       no
#   Separate Channel Data:    no
#   External Channel Data:    yes
#   Transmission Function:    no
#   ErrorBar:                 no
#   Operation Results:        yes
#   Time Zone Format:         UTC
#
# Group:             Spectrum Group 35
#
# Region:            Si2p
# Acquisition Date:  10/31/19 01:34:36 UTC
# Analysis Method:   XPS
# Analyzer:          Phoibos
# Analyzer Lens:     MediumArea:1.5kV
# Analyzer Slit:     5:7x20\B:open
# Scan Mode:         FixedAnalyzerTransmission
# Curves/Scan:       1
# Values/Curve:      161
# Dwell Time:        0.1
# Excitation Energy: 1486.71
# Binding Energy:    108
# Pass Energy:       10
# Bias Voltage:      90
# Detector Voltage:  1900
# Eff. Workfunction: 4.395
# Source:            Focus
# Comment:
#
# Cycle: 0
# Number of Scans: 15
#
# Cycle: 0, Curve: 0
# Acquisition Date: 10/31/19 01:34:36 UTC
#
# ColumnLabels: energy counts/s
#
108  78.3287
107.9  81.7576
107.8  82.66369
107.7  85.4094
107.6  98.1198
107.5  86.4448
107.4  79.8846
107.3  84.5085
107.2  92.7212
107.1  84.4221
107  77.1897
106.9  91.8379
106.8  88.4119
106.7  78.9602
106.6  92.3128
106.5  80.495
106.4  86.3318
106.3  93.5105
106.2  99.3165
106.1  108.717
106  125.435
105.9  130.017
105.8  150.612
105.7  180.302
105.6  242.136
105.5  292.478
105.4  359.138
105.3  441.887
105.2  545.544
105.1  667.27
105  769.75
104.9  896.813
104.8  1091.21
104.7  1176.24
104.6  1304.05
104.5  1525.13
104.4  1608.53
104.3  1595.99
104.2  1666.935
104.1  1651.176
104  1693.26
103.9  1614.17
103.8  1530.61
103.7  1391.12
103.6  1271.07
103.5  1182.49
103.4  978.325
103.3  878.663
103.2  840.972
103.1  776.915
103  693.462
102.9  692.942
102.8  686.2117
102.7  661.153
102.6  655.95
102.5  625.1729
102.4  572.259
102.3  505.847
102.2  459.31
102.1  397.272
102  302.197
101.9  239.272
101.8  211.194
101.7  171.695
101.6  137.512
101.5  111.4869
101.4  108.735
101.3  107.729
101.2  94.0584
101.1  91.9524
101  89.1561
100.9  88.565
100.8  92.9
100.7  81.2414
100.6  88.1102
100.5  79.661
100.4  81.8146
100.3  95.8691
100.2  81.9112
100.1  84.3429
100  92.8387
99.9  99.5033
99.8  94.0004
99.7  85.0128
99.6  91.6466
99.5  80.9827
99.4  79.4013
99.3  75.397
99.2  64.5932
99.1  71.3781
99  83.5645
98.9  85.2565
98.8  77.5289
98.7  82.1877
98.6  62.3391
98.5  67.6264
98.4  83.2048
98.3  87.04739
98.2  78.0506
98.1  67.099
98  68.0488
97.9  75.8501
97.8  69.20087
97.7  82.4944
97.6  87.0524
97.5  77.5569
97.4  59.2475
97.3  81.07927
97.2  81.1937
97.1  82.5217
97  77.5236
96.9  78.3754
96.8  77.1164
96.7  72.2812
96.6  59.9167
96.5  75.4018
96.4  74.5615
96.3  83.0783
96.2  80.8831
96.1  77.4048
96  82.831
95.9  75.3222
95.8  71.5795
95.7  71.4768
95.6  80.9737
95.5  72.2052
95.4  75.8302
95.3  87.44121
95.2  75.2274
95.1  77.1213
95  76.8312
94.9  77.8671
94.8  80.23
94.7  90.6041
94.6  81.5908
94.5  75.8775
94.4  77.7997
94.3  80.4543
94.2  64.4387
94.1  67.9021
94  78.5772
93.9  80.7801
93.8  86.0134
93.7  85.2011
93.6  81.6945
93.5  76.3974
93.4  82.523
93.3  81.0405
93.2  69.5762
93.1  77.8594
93  80.98612
92.9  82.9409
92.8  79.9743
92.7  75.1151
92.6  79.0289
92.5  75.7141
92.4  69.4532
92.3  80.2629
92.2  95.9787
92.1  79.5153
92  71.8625

File: OxidoInfinito_single 21.xy
# Created by:        SpecsLab Prodigy, Version 4.50.2-r79252
#
# XY-Serializer Export Settings:
#   Comment Prefix:           #
#   Output meta data:         yes
#   Energy Axis:              Binding Energy
#   Count Rate:               Counts per Second
#   Separate Scan Data:       no
#   Separate Channel Data:    no
#   External Channel Data:    yes
#   Transmission Function:    no
#   ErrorBar:                 no
#   Operation Results:        yes
#   Time Zone Format:         UTC
#
# Group:             Spectrum Group 45
#
# Region:            Si2p
# Acquisition Date:  10/31/19 01:51:19 UTC
# Analysis Method:   XPS
# Analyzer:          Phoibos
# Analyzer Lens:     MediumArea:1.5kV
# Analyzer Slit:     5:7x20\B:open
# Scan Mode:         FixedAnalyzerTransmission
# Curves/Scan:       1
# Values/Curve:      161
# Dwell Time:        0.1
# Excitation Energy: 1486.71
# Binding Energy:    108
# Pass Energy:       10
# Bias Voltage:      90
# Detector Voltage:  1900
# Eff. Workfunction: 4.395
# Source:            Focus
# Comment:
#
# Cycle: 0
# Number of Scans: 15
#
# Cycle: 0, Curve: 0
# Acquisition Date: 10/31/19 01:51:19 UTC
#
# ColumnLabels: energy counts/s
#
108  82.63428
107.9  72.4583
107.8  74.2693
107.7  66.9474
107.6  78.7752
107.5  83.18505
107.4  87.2198
107.3  79.7011
107.2  74.491
107.1  75.446
107  63.7081
106.9  81.0833
106.8  74.71569
106.7  74.3307
106.6  80.008
106.5  80.7468
106.4  74.7445
106.3  75.5083
106.2  82.3335
106.1  98.8122
106  111.397
105.9  104.7835
105.8  121.463
105.7  154.606
105.6  181.0296
105.5  207.257
105.4  270.574
105.3  340.191
105.2  430.5
105.1  514.468
105  603.015
104.9  728.575
104.8  843.538
104.7  941.512
104.6  1032.33
104.5  1090.16
104.4  1152.65
104.3  1259.46
104.2  1277.11
104.1  1247.64
104  1221.58
103.9  1216.92
103.8  1183.11
103.7  1074.48
103.6  989.616
103.5  878.323
103.4  784.3
103.3  773.474
103.2  735.791
103.1  701.8833
103  676.081
102.9  634.243
102.8  642.325
102.7  630.242
102.6  603.641
102.5  564.442
102.4  552.338
102.3  492.9458
102.2  416.95
102.1  335.0967
102  265.824
101.9  217.957
101.8  178.495
101.7  138.4675
101.6  118.5452
101.5  107.682
101.4  83.4358
101.3  90.3322
101.2  104.156
101.1  76.043
101  75.8556
100.9  80.3213
100.8  82.7205
100.7  68.8938
100.6  73.7451
100.5  85.40673
100.4  72.598
100.3  60.70354
100.2  71.0715
100.1  68.0537
100  60.9687
99.9  88.5188
99.8  75.6421
99.7  77.4392
99.6  80.6472
99.5  73.7276
99.4  55.8092
99.3  72.2254
99.2  69.6469
99.1  64.2017
99  68.7623
98.9  77.6184
98.8  69.473
98.7  79.4486
98.6  72.6226
98.5  69.0689
98.4  58.8196
98.3  67.77152
98.2  72.0334
98.1  72.4048
98  64.791
97.9  77.4428
97.8  60.4449
97.7  71.898
97.6  77.20497
97.5  69.10582
97.4  76.922
97.3  73.4019
97.2  73.157
97.1  74.0113
97  86.8493
96.9  68.8403
96.8  66.6449
96.7  62.4286
96.6  64.7196
96.5  74.2307
96.4  65.6924
96.3  67.7791
96.2  72.2742
96.1  76.0738
96  75.5915
95.9  66.6752
95.8  71.0549
95.7  69.417
95.6  73.8168
95.5  68.3763
95.4  69.6178
95.3  61.3861
95.2  66.7334
95.1  74.569
95  61.2252
94.9  72.5724
94.8  71.7656
94.7  71.4608
94.6  70.9977
94.5  69.4271
94.4  69.6078
94.3  54.9492
94.2  61.2018
94.1  67.1861
94  69.2541
93.9  74.995
93.8  65.6893
93.7  73.219
93.6  74.5753
93.5  69.8198
93.4  70.1094
93.3  54.66658
93.2  60.4052
93.1  72.8214
93  69.8005
92.9  79.5567
92.8  77.8745
92.7  73.6196
92.6  68.5528
92.5  75.53901
92.4  69.7175
92.3  65.587
92.2  70.4004
92.1  69.2999
92  61.9426

File: OxidoInfinito_single 24.xy
# Created by:        SpecsLab Prodigy, Version 4.50.2-r79252
#
# XY-Serializer Export Settings:
#   Comment Prefix:           #
#   Output meta data:         yes
#   Energy Axis:              Binding Energy
#   Count Rate:               Counts per Second
#   Separate Scan Data:       no
#   Separate Channel Data:    no
#   External Channel Data:    yes
#   Transmission Function:    no
#   ErrorBar:                 no
#   Operation Results:        yes
#   Time Zone Format:         UTC
#
# Group:             Spectrum Group 55
#
# Region:            Si2p
# Acquisition Date:  10/31/19 02:07:19 UTC
# Analysis Method:   XPS
# Analyzer:          Phoibos
# Analyzer Lens:     MediumArea:1.5kV
# Analyzer Slit:     5:7x20\B:open
# Scan Mode:         FixedAnalyzerTransmission
# Curves/Scan:       1
# Values/Curve:      161
# Dwell Time:        0.1
# Excitation Energy: 1486.71
# Binding Energy:    108
# Pass Energy:       10
# Bias Voltage:      90
# Detector Voltage:  1900
# Eff. Workfunction: 4.395
# Source:            Focus
# Comment:
#
# Cycle: 0
# Number of Scans: 15
#
# Cycle: 0, Curve: 0
# Acquisition Date: 10/31/19 02:07:19 UTC
#
# ColumnLabels: energy counts/s
#
108  41.9382
107.9  43.50038
107.8  50.8523
107.7  46.2503
107.6  41.0781
107.5  41.7359
107.4  40.7234
107.3  45.7841
107.2  39.1457
107.1  46.8931
107  47.2704
106.9  49.8963
106.8  48.5662
106.7  48.5263
106.6  48.8234
106.5  44.7652
106.4  48.5362
106.3  51.8299
106.2  57.4468
106.1  59.445
106  62.5897
105.9  73.9646
105.8  72.5464
105.7  86.2805
105.6  100.098
105.5  106.818
105.4  138.166
105.3  170.276
105.2  210.43
105.1  229.0063
105  270.9508
104.9  323.777
104.8  393.234
104.7  433.663
104.6  461.295
104.5  552.156
104.4  565.771
104.3  591.066
104.2  608.67
104.1  581.9202
104  571.2546
103.9  587.637
103.8  540.9
103.7  537.348
103.6  503.459
103.5  511.9667
103.4  501.241
103.3  474.452
103.2  479.457
103.1  426.193
103  437.969
102.9  438.807
102.8  456.687
102.7  478.573
102.6  446.843
102.5  397.608
102.4  382.899
102.3  310.754
102.2  253.98
102.1  236.342
102  174.962
101.9  134.491
101.8  108.215
101.7  79.6191
101.6  64.9953
101.5  55.9802
101.4  56.3133
101.3  56.0801
101.2  48.2798
101.1  53.6198
101  50.8037
100.9  45.2246
100.8  50.0758
100.7  40.365
100.6  40.7564
100.5  49.8991
100.4  44.2031
100.3  45.7047
100.2  41.1154
100.1  53.9514
100  51.5869
99.9  48.5631
99.8  47.23431
99.7  50.1965
99.6  41.126
99.5  55.406
99.4  47.6345
99.3  45.6431
99.2  43.3175
99.1  42.5722
99  46.029
98.9  44.0617
98.8  45.584
98.7  49.1633
98.6  43.4578
98.5  40.829
98.4  37.5479
98.3  38.1035
98.2  42.1225
98.1  47.9617
98  46.23855
97.9  41.9137
97.8  43.7146
97.7  43.8187
97.6  45.3977
97.5  44.3096
97.4  38.85406
97.3  48.0442
97.2  55.7718
97.1  43.9099
97  31.8123
96.9  40.3736
96.8  44.0864
96.7  48.0248
96.6  42.2718
96.5  45.9339
96.4  38.6486
96.3  49.271
96.2  50.2788
96.1  48.1454
96  44.75678
95.9  51.9485
95.8  41.687
95.7  50.0909
95.6  50.9898
95.5  42.8906
95.4  46.0977
95.3  48.6794
95.2  48.6365
95.1  45.6906
95  45.937
94.9  46.6025
94.8  49.4376
94.7  41.22484
94.6  38.2018
94.5  37.5351
94.4  44.5792
94.3  39.42833
94.2  46.9884
94.1  51.2717
94  44.1013
93.9  51.4264
93.8  47.5917
93.7  56.0665
93.6  50.5747
93.5  40.4976
93.4  45.4036
93.3  45.7885
93.2  48.477
93.1  48.9061
93  44.077
92.9  35.8791
92.8  45.6977
92.7  50.8909
92.6  49.8091
92.5  49.0894
92.4  43.1302
92.3  37.9306
92.2  40.9262
92.1  31.4629
92  44.4896