Folder: XPS_silicon_waffer_angular_data/Silicio2p/OxidoInfinito

File: OxidoInfinito.xy
# Created by:        SpecsLab Prodigy, Version 4.50.2-r79252
#
# XY-Serializer Export Settings:
#   Comment Prefix:           #
#   Output meta data:         yes
#   Energy Axis:              Binding Energy
#   Count Rate:               Counts per Second
#   Separate Scan Data:       no
#   Separate Channel Data:    no
#   External Channel Data:    yes
#   Transmission Function:    no
#   ErrorBar:                 no
#   Operation Results:        yes
#   Time Zone Format:         UTC
#
# Group:             Spectrum Group 0
#
# Region:            Survey
# Acquisition Date:  10/30/19 22:56:45 UTC
# Analysis Method:   XPS
# Analyzer:          Phoibos
# Analyzer Lens:     MediumArea:1.5kV
# Analyzer Slit:     5:7x20\B:open
# Scan Mode:         FixedAnalyzerTransmission
# Curves/Scan:       1
# Values/Curve:      1201
# Dwell Time:        0.1
# Excitation Energy: 1486.71
# Binding Energy:    1200
# Pass Energy:       50
# Bias Voltage:      90
# Detector Voltage:  1900
# Eff. Workfunction: 4.395
# Source:            Focus
# Comment:
#
# Cycle: 0
# Number of Scans: 1
#
# Cycle: 0, Curve: 0
# Acquisition Date: 10/30/19 22:56:45 UTC
#
# ColumnLabels: energy counts/s
#
1200  22541.279
1195  22816.59
1190  22520.996
1185  23021.932
1180  22943.074
1175  23028.122
1170  22720.378
1165  23353.583
1160  22927.817
1155  23704.687
1150  24053.78
1145  24607.042
1140  23639.801
1135  24159.417
1130  23875.876
1125  24190.57
1120  23756.424
1115  23983.338
1110  24013.388
1105  24754.951
1100  23987.366
1095  24752.826
1090  25658.605
1085  25042.994
1080  24831.644
1075  24869.337
1070  24873.91
1065  25085.658
1060  25253.933
1055  23656.073
1050  24517.688
1045  26548.501
1040  25450.994
1035  25213.625
1030  25439.419
1025  25304.64
1020  24854.685
1015  25102.471
1010  24482.103
1005  25206.365
1000  25522.957
995  22704.456
990  20646.263
985  22119.396
980  27939.03
975  20583.059
970  15730.541
965  14195.355
960  15099.157
955  14338.474
950  15127.655
945  15722.284
940  15260.116
935  14870.432
930  16134.442
925  16156.887
920  16234.606
915  15743.396
910  16163.857
905  16554.741
900  16377.926
895  16613.49
890  17021.89
885  17241.542
880  17771.361
875  17567.45
870  17834.002
865  18005.724
860  17644.162
855  18753.794
850  18500.637
845  18995.149
840  19203.495
835  19140.869
830  19900.71
825  19778.655
820  20054.641
815  19958.657
810  20734.08
805  20732.014
800  20960.509
795  21485.66
790  21486.694
785  21000.932
780  21915.796
775  22165.209
770  22329.291
765  22603.73
760  22728.121
755  23003.571
750  22252.323
745  23922.562
740  23990.176
735  23589.254
730  25332.591
725  24885.729
720  24544.648
715  25225.764
710  25474.097
705  25208.516
700  25402.648
695  25531.695
690  26936.812
685  26723.873
680  26813.273
675  27358.323
670  27605.314
665  27694.832
660  27125.095
655  28072.461
650  29105.021
645  28886.6
640  29264.983
635  30077.195
630  29275.882
625  29707.874
620  29556.932
615  29598.242
610  30090.312
605  30993.053
600  30532.949
595  30182.923
590  30479.22
585  31145.468
580  30320.536
575  31053.698
570  28696.742
565  29516.028
560  31501.293
555  34913.198
550  27684.395
545  20328.647
540  11370.355
535  44391.894
530  12235.435
525  10960.51
520  10417.815
515  10496.696
510  10973.053
505  10424.494
500  10904.992
495  10405.019
490  9973.15
485  10747.128
480  10006.877
475  10466.992
470  10021.474
465  10730.765
460  11086.796
455  11045.171
450  10780.12
445  11110.093
440  11176.436
435  11334.174
430  11059.613
425  11294.312
420  10921.955
415  11314.312
410  10921.775
405  11230.676
400  11602.37
395  11380.638
390  11066.682
385  11096.083
380  11825.365
375  11994.438
370  11611.299
365  11768.109
360  12102.325
355  12308.799
350  12499.155
345  11954.941
340  12814.013
335  12490.272
330  13483.789
325  13680.083
320  12813.23
315  13270.833
310  13481.604
305  14045.457
300  13142.757
295  11934.333
290  13206.92
285  45690.435
280  10617.625
275  10442.304
270  10838.647
265  10123.301
260  10389.602
255  10825.798
250  10557.127
245  10635.003
240  10754.307
235  10622.388
230  10890.31
225  11085.239
220  10889.821
215  10413.383
210  10707.24
205  11079.232
200  11551.476
195  11157.09
190  10452.438
185  10280.798
180  11991.994
175  11540.7
170  11173.06
165  8170.12
160  7382.23
155  33056.726
150  7457.99
145  6582.97
140  6284.79
135  6153.53
130  6363.83
125  7222.61
120  5831.33
115  3681.59
110  1948.68
105  25169.072
100  1980.5
95  2072.78
90  2190.07
85  1871.86
80  2218.24
75  2243.14
70  2163.33
65  1887.762
60  2047.079
55  2073.49
50  2388.76
45  2169.03
40  1728.14
35  1450.72
30  2143.95
25  4680.63
20  736.868
15  1703.81
10  1264.504
5  216.602
0  13.46557

# Region:            C1s
# Acquisition Date:  10/30/19 23:25:20 UTC
# Analysis Method:   XPS
# Analyzer:          Phoibos
# Analyzer Lens:     MediumArea:1.5kV
# Analyzer Slit:     5:7x20\B:open
# Scan Mode:         FixedAnalyzerTransmission
# Curves/Scan:       1
# Values/Curve:      151
# Dwell Time:        0.1
# Excitation Energy: 1486.71
# Binding Energy:    295
# Pass Energy:       10
# Bias Voltage:      90
# Detector Voltage:  1900
# Eff. Workfunction: 4.395
# Source:            Focus
# Comment:
#
# Cycle: 0
# Number of Scans: 15
#
# Cycle: 0, Curve: 0
# Acquisition Date: 10/30/19 23:25:20 UTC
#
# ColumnLabels: energy counts/s
#
295  793.528
294.9  759.963
294.8  789.57
294.7  769.7643
294.6  760.649
294.5  793.49
294.4  801.6796
294.3  775.931
294.2  801.685
294.1  819.635
294  820.117
293.9  808.891
293.8  834.073
293.7  797.48
293.6  795.941
293.5  818.067
293.4  770.974
293.3  797.718
293.2  792.048
293.1  781.95
293  772.751
292.9  719.023
292.8  753.157
292.7  729.627
292.6  721.372
292.5  706.577
292.4  737.67
292.3  765.4638
292.2  744.569
292.1  733.18
292  709.207
291.9  772.42
291.8  718.155
291.7  699.364
291.6  740.757
291.5  726.386
291.4  735.325
291.3  753.273
291.2  737.997
291.1  722.056
291  755.091
290.9  708.083
290.8  721.569
290.7  762.429
290.6  732.156
290.5  776.177
290.4  800.775
290.3  789.6055
290.2  773.882
290.1  825.629
290  848.425
289.9  861.69
289.8  863.19
289.7  895.019
289.6  915.998
289.5  925.096
289.4  866.938
289.3  843.884
289.2  845.279
289.1  876.661
289  899.803
288.9  860.539
288.8  858.398
288.7  880.476
288.6  857.692
288.5  855.82
288.4  834.8601
288.3  913.5429
288.2  860.327
288.1  905.123
288  919.051
287.9  959.346
287.8  1044.44
287.7  1079.08
287.6  1124.71
287.5  1162.94
287.4  1259.47
287.3  1322.33
287.2  1318.11
287.1  1329.39
287  1343.61
286.9  1382.56
286.8  1357.173
286.7  1396.14
286.6  1466.42
286.5  1504.35
286.4  1691.24
286.3  2028.19
286.2  2425.78
286.1  2840.69
286  3308.86
285.9  3837.17
285.8  4368.57
285.7  4819.11
285.6  5162.56
285.5  5427.399
285.4  5367.823
285.3  5122.74
285.2  4686.32
285.1  4134.93
285  3504.7
284.9  2897.01
284.8  2422.06
284.7  1907.709
284.6  1559.4
284.5  1269.54
284.4  1074.39
284.3  948.568
284.2  870.167
284.1  852.44
284  815.996
283.9  820.2813
283.8  753.462
283.7  771.793
283.6  745.636
283.5  767.801
283.4  760.474
283.3  737.455
283.2  748.159
283.1  768.106
283  713.337
282.9  682.416
282.8  739.148
282.7  729.407
282.6  728.267
282.5  709.035
282.4  726.557
282.3  732.041
282.2  716.09
282.1  733.928
282  749.21
281.9  738.206
281.8  733.368
[...]
525.7  259.286
525.6  254.7463
525.5  246.57
525.4  251.816
525.3  245.8662
525.2  238.804
525.1  257.757
525  261.194
524.9  259.634
524.8  261.093
524.7  247.6694
524.6  244.239
524.5  275.6
524.4  260.026
524.3  245.512
524.2  262.209
524.1  254.703
524  267.555
523.9  265.76
523.8  294.235
523.7  259.379
523.6  246.61
523.5  267.44
523.4  281.278
523.3  271.7471
523.2  274.146
523.1  243.312
523  237.583
522.9  239.627
522.8  243.3242
522.7  255.439
522.6  247.826
522.5  246.017
522.4  242.189
522.3  278.438
522.2  269.785
522.1  246.874
522  231.783
521.9  260.7746
521.8  255.038
521.7  261.835
521.6  260.3996
521.5  231.923
521.4  271.997
521.3  255.43
521.2  271.157
521.1  255.6389
521  250.582

# Region:            Si2p
# Acquisition Date:  10/31/19 02:07:19 UTC
# Analysis Method:   XPS
# Analyzer:          Phoibos
# Analyzer Lens:     MediumArea:1.5kV
# Analyzer Slit:     5:7x20\B:open
# Scan Mode:         FixedAnalyzerTransmission
# Curves/Scan:       1
# Values/Curve:      161
# Dwell Time:        0.1
# Excitation Energy: 1486.71
# Binding Energy:    108
# Pass Energy:       10
# Bias Voltage:      90
# Detector Voltage:  1900
# Eff. Workfunction: 4.395
# Source:            Focus
# Comment:
#
# Cycle: 0
# Number of Scans: 15
#
# Cycle: 0, Curve: 0
# Acquisition Date: 10/31/19 02:07:19 UTC
#
# ColumnLabels: energy counts/s
#
108  41.9382
107.9  43.50038
107.8  50.8523
107.7  46.2503
107.6  41.0781
107.5  41.7359
107.4  40.7234
107.3  45.7841
107.2  39.1457
107.1  46.8931
107  47.2704
106.9  49.8963
106.8  48.5662
106.7  48.5263
106.6  48.8234
106.5  44.7652
106.4  48.5362
106.3  51.8299
106.2  57.4468
106.1  59.445
106  62.5897
105.9  73.9646
105.8  72.5464
105.7  86.2805
105.6  100.098
105.5  106.818
105.4  138.166
105.3  170.276
105.2  210.43
105.1  229.0063
105  270.9508
104.9  323.777
104.8  393.234
104.7  433.663
104.6  461.295
104.5  552.156
104.4  565.771
104.3  591.066
104.2  608.67
104.1  581.9202
104  571.2546
103.9  587.637
103.8  540.9
103.7  537.348
103.6  503.459
103.5  511.9667
103.4  501.241
103.3  474.452
103.2  479.457
103.1  426.193
103  437.969
102.9  438.807
102.8  456.687
102.7  478.573
102.6  446.843
102.5  397.608
102.4  382.899
102.3  310.754
102.2  253.98
102.1  236.342
102  174.962
101.9  134.491
101.8  108.215
101.7  79.6191
101.6  64.9953
101.5  55.9802
101.4  56.3133
101.3  56.0801
101.2  48.2798
101.1  53.6198
101  50.8037
100.9  45.2246
100.8  50.0758
100.7  40.365
100.6  40.7564
100.5  49.8991
100.4  44.2031
100.3  45.7047
100.2  41.1154
100.1  53.9514
100  51.5869
99.9  48.5631
99.8  47.23431
99.7  50.1965
99.6  41.126
99.5  55.406
99.4  47.6345
99.3  45.6431
99.2  43.3175
99.1  42.5722
99  46.029
98.9  44.0617
98.8  45.584
98.7  49.1633
98.6  43.4578
98.5  40.829
98.4  37.5479
98.3  38.1035
98.2  42.1225
98.1  47.9617
98  46.23855
97.9  41.9137
97.8  43.7146
97.7  43.8187
97.6  45.3977
97.5  44.3096
97.4  38.85406
97.3  48.0442
97.2  55.7718
97.1  43.9099
97  31.8123
96.9  40.3736
96.8  44.0864
96.7  48.0248
96.6  42.2718
96.5  45.9339
96.4  38.6486
96.3  49.271
96.2  50.2788
96.1  48.1454
96  44.75678
95.9  51.9485
95.8  41.687
95.7  50.0909
95.6  50.9898
95.5  42.8906
95.4  46.0977
95.3  48.6794
95.2  48.6365
95.1  45.6906
95  45.937
94.9  46.6025
94.8  49.4376
94.7  41.22484
94.6  38.2018
94.5  37.5351
94.4  44.5792
94.3  39.42833
94.2  46.9884
94.1  51.2717
94  44.1013
93.9  51.4264
93.8  47.5917
93.7  56.0665
93.6  50.5747
93.5  40.4976
93.4  45.4036
93.3  45.7885
93.2  48.477
93.1  48.9061
93  44.077
92.9  35.8791
92.8  45.6977
92.7  50.8909
92.6  49.8091
92.5  49.0894
92.4  43.1302
92.3  37.9306
92.2  40.9262
92.1  31.4629
92  44.4896

File: OxidoInfinito_single 4.xy
# Created by:        SpecsLab Prodigy, Version 4.50.2-r79252
#
# XY-Serializer Export Settings:
#   Comment Prefix:           #
#   Output meta data:         yes
#   Energy Axis:              Binding Energy
#   Count Rate:               Counts per Second
#   Separate Scan Data:       no
#   Separate Channel Data:    no
#   External Channel Data:    yes
#   Transmission Function:    no
#   ErrorBar:                 no
#   Operation Results:        yes
#   Time Zone Format:         UTC
#
# Group:             Spectrum Group 0
#
# Region:            Si2p
# Acquisition Date:  10/30/19 23:51:53 UTC
# Analysis Method:   XPS
# Analyzer:          Phoibos
# Analyzer Lens:     MediumArea:1.5kV
# Analyzer Slit:     5:7x20\B:open
# Scan Mode:         FixedAnalyzerTransmission
# Curves/Scan:       1
# Values/Curve:      421
# Dwell Time:        0.1
# Excitation Energy: 1486.71
# Binding Energy:    137
# Pass Energy:       10
# Bias Voltage:      90
# Detector Voltage:  1900
# Eff. Workfunction: 4.395
# Source:            Focus
# Comment:
#
# Cycle: 0
# Number of Scans: 15
#
# Cycle: 0, Curve: 0
# Acquisition Date: 10/30/19 23:51:53 UTC
#
# ColumnLabels: energy counts/s
#
137  376.605
136.8  398.035
136.6  364.832
136.4  366.161
136.2  362.647
136  371.347
135.8  394.493
135.6  386.407
135.4  389.553
135.2  368.457
135  407.345
134.8  398.489
134.6  403.872
134.4  352.69
134.2  383.956
134  349.805
133.8  379.325
133.6  382.5169
133.4  355.847
133.2  390.155
133  364.644
132.8  359.94
132.6  395.943
132.4  389.467
132.2  396.644
132  386.725
131.8  413.657
131.6  371.396
131.4  388.99
131.2  411.9125
131  409.09
130.8  395.1
130.6  403.2525
130.4  398.051
130.2  404.979
130  447.9998
129.8  434.758
129.6  415.103
129.4  414.654
129.2  411.304
129  435.208
128.8  418.475
128.6  441.963
128.4  430.555
128.2  469.201
128  478.935
127.8  485.506
127.6  480.863
127.4  475.355
127.2  503.8017
127  432.048
126.8  456.366
126.6  468.109
126.4  441.199
126.2  462.664
126  463.126
125.8  456.626
125.6  457.204
125.4  438.776
125.2  440.688
125  456.309
124.8  451.197
124.6  457.698
124.4  439.816
124.2  461.961
124  471.409
123.8  428.972
123.6  434.659
123.4  467.9403
123.2  440.943
123  435.143
122.8  426.661
122.6  419.595
122.4  441.434
122.2  421.0812
122  433.73
121.8  410.783
121.6  395.229
121.4  394.2451
121.2  399.643
121  392.598
120.8  424.192
120.6  400.667
120.4  364.262
120.2  379.649
120  358.167
119.8  347.042
119.6  403.298
119.4  387.295
119.2  383.757
119  365.996
118.8  334.228
118.6  372.271
118.4  334.464
118.2  325.723
118  333.366
117.8  305.598
117.6  308.874
117.4  333.853
117.2  308.3007
117  303.074
116.8  282.337
116.6  302.355
116.4  289.772
116.2  277.615
116  277.935
115.8  273.649
115.6  244.2379
115.4  245.072
115.2  236.59
115  247.462
114.8  221.282
114.6  229.302
114.4  213.15
114.2  220.347
114  193.8777
113.8  202.258
113.6  187.217
113.4  197.135
113.2  166.422
113  168.035
112.8  161.849
112.6  142.408
112.4  151.649
112.2  148.55
112  153.335
111.8  147.186
111.6  137.412
111.4  147.655
111.2  154.491
111  150.501
110.8  137.041
110.6  137.667
110.4  145.311
110.2  124.488
110  135.953
109.8  148.604
109.6  129.41
109.4  136.982
109.2  126.875
109  141.698
108.8  135.595
108.6  120.244
108.4  131.957
108.2  134.257
108  126.303
107.8  143.39
107.6  131.876
107.4  145.615
107.2  124.395
107  140.667
106.8  133.367
106.6  144.0017
106.4  149.406
106.2  186.869
106  179.111
105.8  255.696
105.6  421.399
105.4  620.911
105.2  959.812
105  1433.12
104.8  1968.576
104.6  2451.25
104.4  2862.35
104.2  3034.78
104  2934.9
103.8  2534.58
103.6  1937.57
103.4  1581.26
103.2  1292.55
103  1148.247
102.8  1115.01
102.6  1011.86
102.4  823.726
102.2  576.91
102  361.521
101.8  220.108
101.6  174.241
101.4  154.686
101.2  142.2381
101  125.697
100.8  128.124
100.6  138.627
100.4  147.919
100.2  142.837
100  153.404
99.8  157.815
99.6  156.205
99.4  127.903
99.2  132.496
99  136.961
98.8  121.134
98.6  133.829
98.4  127.893
98.2  122.1915
98  123.893
97.8  143.832
97.6  119.119
97.4  123.133
97.2  122.909
97  126.728
96.8  136.5324
96.6  135.095
96.4  117.768
96.2  118.135
96  116.52
95.8  108.121
95.6  126.619
95.4  113.007
95.2  133.402
95  132.512

File: OxidoInfinito_single 9.xy
# Created by:        SpecsLab Prodigy, Version 4.50.2-r79252
#
# XY-Serializer Export Settings:
#   Comment Prefix:           #
#   Output meta data:         yes
#   Energy Axis:              Binding Energy
#   Count Rate:               Counts per Second
#   Separate Scan Data:       no
#   Separate Channel Data:    no
#   External Channel Data:    yes
#   Transmission Function:    no
#   ErrorBar:                 no
#   Operation Results:        yes
#   Time Zone Format:         UTC
#
# Group:             Spectrum Group 5
#
# Region:            Si2p
# Acquisition Date:  10/31/19 00:30:44 UTC
# Analysis Method:   XPS
# Analyzer:          Phoibos
# Analyzer Lens:     MediumArea:1.5kV
# Analyzer Slit:     5:7x20\B:open
# Scan Mode:         FixedAnalyzerTransmission
# Curves/Scan:       1
# Values/Curve:      421
# Dwell Time:        0.1
# Excitation Energy: 1486.71
# Binding Energy:    137
# Pass Energy:       10
# Bias Voltage:      90
# Detector Voltage:  1900
# Eff. Workfunction: 4.395
# Source:            Focus
# Comment:
#
# Cycle: 0
# Number of Scans: 15
#
# Cycle: 0, Curve: 0
# Acquisition Date: 10/31/19 00:30:44 UTC
#
# ColumnLabels: energy counts/s
#
137  402.661
136.8  370.935
136.6  374.609
136.4  344.106
136.2  368.587
136  377.089
135.8  369.881
135.6  371.589
135.4  366.515
135.2  372.1568
135  358.709
134.8  370.121
134.6  406.2123
134.4  349.145
134.2  387.194
134  370.72
133.8  362.557
133.6  361.928
133.4  361.389
133.2  374.852
133  363.516
132.8  367.975
132.6  365.345
132.4  363.908
132.2  392.717
132  374.877
131.8  349.03
131.6  380.306
131.4  381.762
131.2  377.953
131  370.292
130.8  403.3545
130.6  372.677
130.4  407.335
130.2  402.651
130  398.637
129.8  426.304
129.6  407.646
129.4  426.412
129.2  410.458
129  421.057
128.8  442.297
128.6  445.611
128.4  416.659
128.2  422.7885
128  443.714
127.8  461.748
127.6  447.151
127.4  455.488
127.2  436.799
127  451.823
126.8  467.173
126.6  462.087
126.4  451.3904
126.2  431.404
126  433.9882
125.8  451.706
125.6  467.109
125.4  458.7335
125.2  427.322
125  457.815
124.8  430.936
124.6  422.382
124.4  449.118
124.2  433.374
124  456.955
123.8  421.71
123.6  426.743
123.4  423.848
123.2  427.7695
123  420.448
122.8  411.14
122.6  406.649
122.4  432.736
122.2  410.647
122  367.16
121.8  407.382
121.6  413.169
121.4  376.781
121.2  352.591
121  397.112
120.8  392.153
120.6  363.099
120.4  400.836
120.2  389.78
120  353.332
119.8  373.254
119.6  387.881
119.4  357.818
119.2  357.801
119  347.164
118.8  345.349
118.6  352.693
118.4  327.127
118.2  308.377
118  341.037
117.8  317.2695
117.6  288.251
117.4  309.201
117.2  275.276
117  285.362
116.8  281.076
116.6  274.31
116.4  262.006
116.2  269.599
116  245.592
115.8  279.926
115.6  246.267
115.4  252.248
115.2  244.8163
115  219.418
114.8  220.1819
114.6  216.102
114.4  187.726
114.2  200.871
114  196.668
113.8  189.494
113.6  199.541
113.4  170.265
113.2  162.658
113  157.292
112.8  154.081
112.6  135.609
112.4  144.639
112.2  136.609
112  163.8506
111.8  152.529
111.6  140.416
111.4  143.201
111.2  143.888
111  142.282
110.8  124.897
110.6  131.482
110.4  121.9935
110.2  124.932
110  133.657
109.8  124.232
109.6  116.907
109.4  139.684
109.2  130.282
109  116.883
108.8  120.39
108.6  123.397
108.4  123.874
108.2  132.055
108  123.08
107.8  124.001
107.6  138.815
107.4  140.453
107.2  129.867
107  130.842
106.8  140.534
106.6  144.541
106.4  134.335
106.2  166
106  187.638
105.8  262.362
105.6  401.338
105.4  630.061
105.2  969.984
105  1420.66
104.8  1944.29
104.6  2445.197
104.4  2774.82
104.2  3025.66
104  2964.26
103.8  2501.6
103.6  2035.36
103.4  1566.04
103.2  1257.28
103  1102.29
102.8  1044.55
102.6  958.469
102.4  777.5176
102.2  611.171
102  372.991
101.8  251.004
101.6  188.152
101.4  149.3892
101.2  139.05
101  138.801
100.8  120.546
100.6  136.446
100.4  136.884
100.2  143.398
100  132.063
99.8  143.588
99.6  131.879
99.4  122.862
99.2  131.571
99  120.295
98.8  122.526
98.6  130.908
98.4  120.158
98.2  123.868
98  132.21
97.8  119.191
97.6  124.774
97.4  118.2
97.2  134.1829
97  126.128
96.8  126.058
96.6  129.777
96.4  118.234
96.2  118.985
96  129.436
95.8  132.5165
95.6  112.101
95.4  117.446
95.2  124.553
95  128.699

File: OxidoInfinito_single 12.xy
# Created by:        SpecsLab Prodigy, Version 4.50.2-r79252
#
# XY-Serializer Export Settings:
#   Comment Prefix:           #
#   Output meta data:         yes
#   Energy Axis:              Binding Energy
#   Count Rate:               Counts per Second
#   Separate Scan Data:       no
#   Separate Channel Data:    no
#   External Channel Data:    yes
#   Transmission Function:    no
#   ErrorBar:                 no
#   Operation Results:        yes
#   Time Zone Format:         UTC
#
# Group:             Spectrum Group 15
#
# Region:            Si2p
# Acquisition Date:  10/31/19 00:58:55 UTC
# Analysis Method:   XPS
# Analyzer:          Phoibos
# Analyzer Lens:     MediumArea:1.5kV
# Analyzer Slit:     5:7x20\B:open
# Scan Mode:         FixedAnalyzerTransmission
# Curves/Scan:       1
# Values/Curve:      161
# Dwell Time:        0.1
# Excitation Energy: 1486.71
# Binding Energy:    108
# Pass Energy:       10
# Bias Voltage:      90
# Detector Voltage:  1900
# Eff. Workfunction: 4.395
# Source:            Focus
# Comment:
#
# Cycle: 0
# Number of Scans: 15
#
# Cycle: 0, Curve: 0
# Acquisition Date: 10/31/19 00:58:55 UTC
#
# ColumnLabels: energy counts/s
#
108  122.757
107.9  115.076
107.8  112.699
107.7  113.352
107.6  115.575
107.5  112.514
107.4  122.277
107.3  115.57
107.2  118.256
107.1  110.8798
107  126.01
106.9  125.429
106.8  120.507
106.7  121.803
106.6  128.117
106.5  136.441
106.4  128.029
106.3  132.949
106.2  151.699
106.1  167.179
106  179.258
105.9  217.426
105.8  260.81
105.7  330.02
105.6  390.343
105.5  483.584
105.4  621.197
105.3  757.803
105.2  932.661
105.1  1134.71
105  1397.43
104.9  1592.08
104.8  1830.83
104.7  2046.51
104.6  2296.39
104.5  2515.6
104.4  2604.21
104.3  2715.26
104.2  2822.4
104.1  2691.75
104  2575.5
103.9  2536.77
103.8  2219.89
103.7  2061.41
103.6  1766.84
103.5  1590.699
103.4  1396.76
103.3  1256.62
103.2  1096.13
103.1  1039.88
103  1016.39
102.9  923.2886
102.8  903.519
102.7  902.307
102.6  858.6895
102.5  804.0286
102.4  741.141
102.3  627.484
102.2  554.9169
102.1  445.4843
102  373.875
101.9  279.651
101.8  222.312
101.7  190.111
101.6  175.56
101.5  152.866
101.4  154.453
101.3  149.839
101.2  142.718
101.1  124.859
101  117.529
100.9  137.378
100.8  116.643
100.7  116.712
100.6  132.126
100.5  131.747
100.4  123.051
100.3  125.422
100.2  129.7228
100.1  125.794
100  121.3938
99.9  123.037
99.8  120.358
99.7  125.888
99.6  122.921
99.5  115.772
99.4  111.737
99.3  109.152
99.2  107.289
99.1  116.453
99  106.677
98.9  117.412
98.8  122.855
98.7  115.599
98.6  110.477
98.5  112.438
98.4  115.178
98.3  113.883
98.2  106.968
98.1  112.359
98  119.326
97.9  121.132
97.8  113.822
97.7  116.573
97.6  108.963
97.5  101.324
97.4  93.3486
97.3  110.2133
97.2  111.174
97.1  92.899
97  105.31
96.9  94.6147
96.8  103.857
96.7  108.7363
96.6  112.61
96.5  110.935
96.4  122.32
96.3  105.2718
96.2  123.669
96.1  123.237
96  110.1832
95.9  115.4519
95.8  106.925
95.7  111.265
95.6  113.698
95.5  103.146
95.4  114.757
95.3  104.231
95.2  113.105
95.1  115.54
95  115.134
94.9  107.409
94.8  103.836
94.7  112.721
94.6  110.959
94.5  108.108
94.4  101.639
94.3  101.346
94.2  107.311
94.1  116.982
94  112.727
93.9  96.1513
93.8  116.712
93.7  104.68
93.6  109.97
93.5  116.869
93.4  118.5384
93.3  110.85
93.2  110.528
93.1  111.48
93  116.086
92.9  114.884
92.8  111.249
92.7  113.667
92.6  107.162
92.5  120.869
92.4  109.507
92.3  118.626
92.2  115.577
92.1  114.922
92  115.325